# starting wavelength =        4115.0263
# ending wavelength =        8924.1534
# O2 telluric scale =        0
# O2 telluric shift =        0
# H2O telluric scale =        0
# H2O telluric shift =        0
      4117.96      0.77425429     0.022942822
      4122.08      0.77842149     0.019486264
      4126.20      0.77827210     0.016778903
      4130.33      0.78035050     0.014662757
      4134.46      0.78550675     0.013015783
      4138.59      0.79050219     0.011739435
      4142.73      0.78838104     0.010751133
      4146.88      0.78645094    0.0099863039
      4151.02      0.78385104    0.0093922584
      4155.18      0.77965694    0.0089273204
      4159.33      0.77534853    0.0085595116
      4163.49      0.77503366    0.0082640199
      4167.65      0.77490311    0.0080228337
      4171.82      0.77390162    0.0078225734
      4175.99      0.77722217    0.0076533529
      4180.17      0.77866986    0.0075082365
      4184.35      0.77883419    0.0073821760
      4188.54      0.77942964    0.0072715655
      4192.72      0.77927595    0.0072193974
      4196.92      0.78320538    0.0072141842
      4201.11      0.78316073    0.0072575439
      4205.31      0.77923779    0.0072981620
      4209.52      0.78532398    0.0072930244
      4213.73      0.79314578    0.0072879540
      4217.94      0.79758020    0.0072829583
      4222.16      0.80766742    0.0073264885
      4226.38      0.81313721    0.0073216162
      4230.61      0.81928730    0.0073168347
      4234.84      0.82374424    0.0073594537
      4239.08      0.82900911    0.0073538815
      4243.32      0.83550517    0.0073484062
      4247.56      0.83873359    0.0073430404
      4251.81      0.83997422    0.0073879805
      4256.06      0.84320782    0.0073828055
      4260.32      0.84945161    0.0073777613
      4264.58      0.85770571    0.0074218738
      4268.84      0.85977385    0.0074159379
      4273.11      0.86348697    0.0074101480
      4277.38      0.86533833    0.0074566046
      4281.66      0.86625898    0.0074510728
      4285.94      0.86140567    0.0074457108
      4290.23      0.85749184    0.0074405308
      4294.52      0.86108071    0.0074855485
      4298.81      0.86656819    0.0074793858
      4303.11      0.86724625    0.0074734153
      4307.42      0.87293534    0.0075217376
      4311.72      0.87642596    0.0075161438
      4316.04      0.88030962    0.0075107824
      4320.35      0.88434569    0.0075573409
      4324.67      0.88640483    0.0075508938
      4329.00      0.88846010    0.0075447026
      4333.33      0.89580574    0.0075950418
      4337.66      0.90566438    0.0075893416
      4342.00      0.91401842    0.0075839369
      4346.34      0.92827009    0.0076315735
      4350.69      0.93468806    0.0076249926
      4355.04      0.93897515    0.0076773999
      4359.39      0.94454723    0.0076123236
      4363.75      0.95085131    0.0076048714
      4368.12      0.95554055    0.0076562621
      4372.48      0.96059158    0.0076494253
      4376.86      0.96412517    0.0076429641
      4381.23      0.97044248    0.0076955873
      4385.61      0.97755886    0.0076877799
      4390.00      0.98475758    0.0077414474
      4394.39      0.99015681    0.0077344160
      4398.79      0.99126007    0.0077278244
      4403.18      0.99425332    0.0077822618
      4407.59       1.0009919    0.0077742173
      4412.00       1.0103266    0.0077666749
      4416.41       1.0197024    0.0078234194
      4420.82       1.0309219    0.0078168640
      4425.25       1.0363449    0.0078727560
      4429.67       1.0414792    0.0078646093
      4434.10       1.0512149    0.0079239934
      4438.54       1.0576403    0.0079170428
      4442.97       1.0654501    0.0079107585
      4447.42       1.0708187    0.0079676627
      4451.86       1.0816604    0.0078924714
      4456.32       1.0907534    0.0079540626
      4460.77       1.0936081    0.0079444404
      4465.24       1.0924131    0.0079355762
      4469.70       1.0916947    0.0079973684
      4474.17       1.0992402    0.0079899820
      4478.65       1.1051166    0.0080521046
      4483.12       1.1043395    0.0080428403
      4487.61       1.1057333    0.0081080546
      4492.09       1.1091621    0.0081005527
      4496.59       1.1168959    0.0081655498
      4501.08       1.1223801    0.0081560581
      4505.58       1.1270537    0.0081476141
      4510.09       1.1246461    0.0081407346
      4514.60       1.1260155    0.0081303525
      4519.12       1.1323411    0.0081983265
      4523.63       1.1296547    0.0081900855
      4528.16       1.1320698    0.0082593792
      4532.69       1.1333262    0.0082489544
      4537.22       1.1362186    0.0083214231
      4541.76       1.1346286    0.0083135424
      4546.30       1.1313626    0.0083850958
      4550.85       1.1253731    0.0083749006
      4555.40       1.1252757    0.0084526276
      4559.95       1.1216797    0.0083576940
      4564.51       1.1150010    0.0084329392
      4569.08       1.1135922    0.0084234912
      4573.65       1.1128728    0.0085021006
      4578.22       1.1057673    0.0084900534
      4582.80       1.1078908    0.0085713357
      4587.38       1.1107664    0.0085629337
      4591.97       1.1086600    0.0086430900
      4596.56       1.1073697    0.0086319876
      4601.16       1.1048329    0.0085325373
      4605.76       1.1042196    0.0086129967
      4610.37       1.1075787    0.0085111711
      4614.98       1.1075243    0.0085020398
      4619.59       1.1053210    0.0085824944
      4624.21       1.1101744    0.0084807027
      4628.84       1.1061315    0.0084714071
      4633.47       1.0978757    0.0085515447
      4638.10       1.0935899    0.0084499406
      4642.74       1.0975148    0.0084406364
      4647.38       1.0992112    0.0085201573
      4652.03       1.0758683    0.0084189120
      4656.68       1.0544611    0.0084097381
      4661.34       1.0320656    0.0084029985
      4666.00       1.0193579    0.0083876508
      4670.67       1.0080296    0.0083787657
      4675.33      0.99107347    0.0082779998
      4680.01      0.96736540    0.0083562181
      4684.69      0.95435542    0.0083477953
      4689.38      0.94702821    0.0082463304
      4694.07      0.94713766    0.0083247086
      4698.76      0.94016457    0.0082267639
      4703.46      0.94123701    0.0082145316
      4708.16      0.94737332    0.0082932437
      4712.87      0.95141383    0.0081941908
      4717.58      0.95868535    0.0082708063
      4722.30      0.97002808    0.0081748538
      4727.03      0.99258243    0.0081615742
      4731.75       1.0122805    0.0082387837
      4736.48       1.0160169    0.0081413388
      4741.22       1.0104160    0.0081291102
      4745.96       1.0156190    0.0081218776
      4750.71       1.0255888    0.0081079561
      4755.46       1.0403524    0.0080969799
      4760.22       1.0486714    0.0080875138
      4764.97       1.0533545    0.0080749521
      4769.74       1.0599642    0.0080676641
      4774.51       1.0584978    0.0080535411
      4779.29       1.0622959    0.0079611093
      4784.07       1.0663490    0.0080326476
      4788.85       1.0604129    0.0080202049
      4793.64       1.0654158    0.0080121918
      4798.43       1.0667726    0.0079983596
      4803.23       1.0638191    0.0079069105
      4808.03       1.0620374    0.0079768985
      4812.84       1.0634374    0.0078843988
      4817.66       1.0736522    0.0079557153
      4822.48       1.0750242    0.0078622077
      4827.30       1.0764602    0.0078527206
      4832.12       1.0749098    0.0079205822
      4836.96       1.0845862    0.0078297729
      4841.79       1.0966104    0.0078986774
      4846.63       1.1070359    0.0078070705
      4851.48       1.1168743    0.0077990027
      4856.33       1.1230169    0.0077845525
      4861.19       1.1298105    0.0077756465
      4866.05       1.1263871    0.0077621623
      4870.92       1.1327380    0.0077524947
      4875.79       1.1331224    0.0077398544
      4880.66       1.1321712    0.0077294853
      4885.55       1.1345554    0.0076390419
      4890.43       1.1378818    0.0077065893
      4895.32       1.1357466    0.0076169938
      4900.22       1.1319251    0.0076837583
      4905.12       1.1298583    0.0075949051
      4910.02       1.1323049    0.0076609670
      4914.94       1.1308829    0.0075727598
      4919.85       1.1303716    0.0076381920
      4924.77       1.1344002    0.0075505387
      4929.70       1.1399725    0.0075379860
      4934.62       1.1488372    0.0075282399
      4939.56       1.1558205    0.0075154255
      4944.50       1.1628810    0.0075058053
      4949.44       1.1658893    0.0074928208
      4954.39       1.1691672    0.0074832664
      4959.35       1.1657734    0.0074701942
      4964.31       1.1637394    0.0074606178
      4969.27       1.1639832    0.0074475391
      4974.24       1.1688701    0.0074378685
      4979.22       1.1761480    0.0074248588
      4984.20       1.1944123    0.0074149970
      4989.18       1.2048180    0.0074021473
      4994.17       1.2156035    0.0073920558
      4999.16       1.2251223    0.0073073130
      5004.16       1.2318781    0.0073690172
      5009.17       1.2364049    0.0072848279
      5014.18       1.2436827    0.0073459322
      5019.19       1.2467185    0.0072623808
      5024.21       1.2521452    0.0073228210
      5029.23       1.2565332    0.0072400131
      5034.26       1.2601573    0.0072997355
      5039.30       1.2552381    0.0072177377
      5044.34       1.2503089    0.0072054842
      5049.39       1.2491463    0.0071955970
      5054.43       1.2459912    0.0071827770
      5059.49       1.2455704    0.0071736451
      5064.55       1.2508518    0.0071601823
      5069.61       1.2588409    0.0071518944
      5074.68       1.2729681    0.0071377696
      5079.76       1.2880487    0.0070570540
      5084.84       1.3008362    0.0071155580
      5089.92       1.3110820    0.0070343240
      5095.01       1.3258344    0.0070936427
      5100.11       1.3352067    0.0070807592
      5105.21       1.3502344    0.0070016148
      5110.31       1.3613814    0.0070583076
      5115.42       1.3716954    0.0069785222
      5120.54       1.3862852    0.0070362278
      5125.66       1.4003783    0.0069557431
      5130.79       1.4178094    0.0069461426
      5135.92       1.4307950    0.0069333426
      5141.05       1.4489617    0.0069227373
      5146.20       1.4601959    0.0069793515
      5151.34       1.4689921    0.0068997903
      5156.49       1.4771160    0.0068903958
      5161.65       1.4889189    0.0068773500
      5166.81       1.4982314    0.0068668510
      5171.98       1.5121526    0.0067908299
      5177.15       1.5204593    0.0068438777
      5182.33       1.5313030    0.0068343442
      5187.51       1.5395976    0.0068215851
      5192.70       1.5436169    0.0068108416
      5197.89       1.5512708    0.0067359312
      5203.09       1.5604981    0.0067880968
      5208.29       1.5650935    0.0067781032
      5213.50       1.5768537    0.0067023799
      5218.72       1.5864753    0.0067549529
      5223.93       1.5914577    0.0066816278
      5229.16       1.6031306    0.0066692236
      5234.39       1.6082395    0.0067219905
      5239.62       1.6154351    0.0066482681
      5244.86       1.6188618    0.0066363170
      5250.11       1.6259809    0.0066284002
      5255.36       1.6380305    0.0066152127
      5260.61       1.6461587    0.0066036083
      5265.87       1.6539925    0.0065953143
      5271.14       1.6683244    0.0065824400
      5276.41       1.6795995    0.0065711444
      5281.69       1.6893434    0.0065625748
      5286.97       1.6970875    0.0065499267
      5292.26       1.7088348    0.0064775437
      5297.55       1.7247546    0.0064676958
      5302.85       1.7304871    0.0065176496
      5308.15       1.7402602    0.0064455797
      5313.46       1.7457905    0.0064357037
      5318.77       1.7516407    0.0064856209
      5324.09       1.7624737    0.0064137965
      5329.42       1.7773517    0.0064038171
      5334.75       1.7831549    0.0064538966
      5340.08       1.7919158    0.0063822306
      5345.42       1.8011935    0.0063720623
      5350.77       1.8034746    0.0063630276
      5356.12       1.8126598    0.0063509460
      5361.48       1.8207503    0.0063405306
      5366.83       1.8267425    0.0063311800
      5372.20       1.8365045    0.0062625067
      5377.58       1.8437039    0.0063093116
      5382.95       1.8501986    0.0062996029
      5388.34       1.8530145    0.0062323667
      5393.72       1.8575109    0.0062785280
      5399.12       1.8610792    0.0062683955
      5404.52       1.8527255    0.0062028059
      5409.92       1.8526777    0.0061914362
      5415.33       1.8471517    0.0062376982
      5420.75       1.8437550    0.0062279892
      5426.17       1.8380540    0.0061621661
      5431.60       1.8316743    0.0061512130
      5437.03       1.8183160    0.0061410474
      5442.47       1.8078918    0.0061337462
      5447.91       1.8043510    0.0061223118
      5453.36       1.7857102    0.0061116313
      5458.81       1.7680849    0.0061016803
      5464.27       1.7508048    0.0060944154
      5469.73       1.7339663    0.0060831377
      5475.20       1.7179600    0.0060726822
      5480.68       1.7072305    0.0060081842
      5486.16       1.6952778    0.0059990168
      5491.65       1.6789162    0.0060448773
      5497.14       1.6639179    0.0060344294
      5502.64       1.6466558    0.0059702790
      5508.14       1.6256647    0.0059610751
      5513.65       1.6078155    0.0059524298
      5519.16       1.5897117    0.0059969764
      5524.68       1.5763741    0.0059330807
      5530.20       1.5618362    0.0059237797
      5535.73       1.5508536    0.0059149796
      5541.27       1.5401109    0.0059066671
      5546.81       1.5283785    0.0059504775
      5552.36       1.5192371    0.0058873293
      5557.91       1.4994770    0.0058783310
      5563.47       1.4823717    0.0058697754
      5569.04       1.4716989    0.0058616470
      5574.60       1.4672949    0.0058006716
      5580.18       1.4625682    0.0058427647
      5585.76       1.4594877    0.0058339416
      5591.35       1.4544719    0.0058255119
      5596.94       1.4487914    0.0058174574
      5602.53       1.4428044    0.0057576965
      5608.14       1.4394958    0.0057486855
      5613.75       1.4329555    0.0057400214
      5619.36       1.4287270    0.0057823719
      5624.98       1.4305040    0.0057743119
      5630.60       1.4280727    0.0057163399
      5636.23       1.4276786    0.0057074020
      5641.87       1.4271048    0.0056987723
      5647.51       1.4266015    0.0056904390
      5653.16       1.4291902    0.0056823923
      5658.82       1.4337327    0.0056769988
      5664.47       1.4363366    0.0056680819
      5670.14       1.4356610    0.0056594484
      5675.81       1.4387674    0.0056510783
      5681.48       1.4471997    0.0056429631
      5687.17       1.4487725    0.0056350849
      5692.85       1.4548544    0.0055783081
      5698.55       1.4613000    0.0055709316
      5704.25       1.4651906    0.0055637259
      5709.95       1.4691952    0.0055567772
      5715.66       1.4752302    0.0055980142
      5721.38       1.4764651    0.0055903178
      5727.10       1.4812409    0.0055827864
      5732.83       1.4902494    0.0055266982
      5738.56       1.4923257    0.0055195968
      5744.30       1.5009376    0.0055126530
      5750.04       1.5067780    0.0055058713
      5755.79       1.5106790    0.0054992397
      5761.55       1.5207144    0.0054927875
      5767.31       1.5274702    0.0054866206
      5773.08       1.5268376    0.0054333448
      5778.85       1.5318001    0.0054273744
      5784.63       1.5414645    0.0054213192
      5790.41       1.5474056    0.0054152217
      5796.21       1.5466789    0.0054551908
      5802.00       1.5498141    0.0054503995
      5807.81       1.5507688    0.0054474057
      5813.61       1.5435369    0.0054461153
      5819.43       1.5436423    0.0054452955
      5825.25       1.5398430    0.0054446281
      5831.07       1.5374219    0.0053981365
      5836.90       1.5344597    0.0053980879
      5842.74       1.5341891    0.0053964825
      5848.58       1.5249188    0.0053930709
      5854.43       1.5235127    0.0053888332
      5860.29       1.5185424    0.0053839614
      5866.15       1.5137385    0.0053782413
      5872.01       1.5086130    0.0053717413
      5877.89       1.5026322    0.0053650754
      5883.76       1.4945900    0.0053588862
      5889.65       1.4924412    0.0053529807
      5895.54       1.4821286    0.0053466873
      5901.43       1.4723973    0.0053397361
      5907.34       1.4602713    0.0052874187
      5913.24       1.4489486    0.0052797038
      5919.16       1.4383624    0.0052721730
      5925.08       1.4224968    0.0052646965
      5931.00       1.4089482    0.0052565126
      5936.93       1.3927693    0.0052482011
      5942.87       1.3840317    0.0052411470
      5948.81       1.3708582    0.0052350694
      5954.76       1.3613186    0.0052285083
      5960.72       1.3536923    0.0052217387
      5966.68       1.3501460    0.0052158612
      5972.64       1.3370526    0.0052108240
      5978.62       1.3286675    0.0052062283
      5984.60       1.3196521    0.0052018896
      5990.58       1.3158234    0.0051978950
      5996.57       1.3120313    0.0051523241
      6002.57       1.3085321    0.0051488677
      6008.57       1.2989579    0.0051455022
      6014.58       1.2961465    0.0051422818
      6020.60       1.2872929    0.0051392500
      6026.62       1.2814075    0.0051363284
      6032.65       1.2789614    0.0051335831
      6038.68       1.2691878    0.0051309424
      6044.72       1.2584183    0.0051284148
      6050.76       1.2524489    0.0051260094
      6056.81       1.2471949    0.0051237320
      6062.87       1.2423084    0.0051215838
      6068.93       1.2384319    0.0051195715
      6075.00       1.2329333    0.0051177014
      6081.08       1.2224121    0.0050737378
      6087.16       1.2118206    0.0050717101
      6093.25       1.2135932    0.0050698183
      6099.34       1.2143858    0.0050680557
      6105.44       1.2144075    0.0050664337
      6111.54       1.2137350    0.0050649572
      6117.66       1.2092945    0.0050636284
      6123.78       1.2004607    0.0051049548
      6129.90       1.1957143    0.0051039590
      6136.03       1.1954115    0.0050632660
      6142.17       1.1993246    0.0050620196
      6148.31       1.2002351    0.0050609586
      6154.46       1.1958872    0.0050605199
      6160.61       1.1924088    0.0050617347
      6166.77       1.1929891    0.0050635830
      6172.94       1.1912830    0.0050631299
      6179.11       1.1885259    0.0050629222
      6185.29       1.1846640    0.0050278416
      6191.48       1.1825002    0.0050339611
      6197.67       1.1787259    0.0050427930
      6203.87       1.1803026    0.0050969738
      6210.07       1.1859997    0.0051090086
      6216.28       1.1841832    0.0051210428
      6222.50       1.1829972    0.0050929530
      6228.72       1.1845060    0.0051011583
      6234.95       1.1839307    0.0051063415
      6241.19       1.1905571    0.0051080676
      6247.42       1.1999528    0.0051063747
      6253.67       1.2135820    0.0051017225
      6259.93       1.2312564    0.0050918841
      6266.19       1.2400725    0.0050835268
      6272.46       1.2493543    0.0050769497
      6278.73       1.2601067    0.0050736389
      6285.01       1.2748577    0.0050721040
      6291.29       1.2840107    0.0050287878
      6297.58       1.2907508    0.0050253534
      6303.88       1.2991148    0.0050239524
      6310.19       1.3090650    0.0050638774
      6316.50       1.3212760    0.0050638905
      6322.81       1.3362876    0.0050255060
      6329.14       1.3416746    0.0050258067
      6335.47       1.3436558    0.0050267940
      6341.80       1.3519781    0.0050286023
      6348.14       1.3591014    0.0050352446
      6354.49       1.3599389    0.0050374876
      6360.85       1.3649678    0.0050403261
      6367.21       1.3738244    0.0050436219
      6373.57       1.3769225    0.0050108396
      6379.95       1.3785482    0.0050160869
      6386.33       1.3776657    0.0050631658
      6392.72       1.3792943    0.0050705385
      6399.11       1.3829665    0.0050426665
      6405.51       1.3829003    0.0050508106
      6411.92       1.3785013    0.0050588306
      6418.32       1.3743212    0.0051075195
      6424.74       1.3746273    0.0050772388
      6431.17       1.3753504    0.0050838608
      6437.60       1.3758851    0.0050897657
      6444.04       1.3722072    0.0050950881
      6450.48       1.3647549    0.0051004923
      6456.94       1.3561693    0.0051040849
      6463.39       1.3528326    0.0051083734
      6469.85       1.3465003    0.0050749761
      6476.33       1.3415679    0.0051210708
      6482.80       1.3381544    0.0051268375
      6489.28       1.3347255    0.0051326738
      6495.77       1.3250875    0.0050991960
      6502.27       1.3212479    0.0051033131
      6508.77       1.3207588    0.0051491619
      6515.28       1.3190992    0.0051167046
      6521.80       1.3138746    0.0051218521
      6528.32       1.3055360    0.0051267536
      6534.85       1.2933697    0.0051355519
      6541.38       1.2849491    0.0051404024
      6547.92       1.2746491    0.0051466049
      6554.47       1.2601685    0.0051592494
      6561.03       1.2465781    0.0051657156
      6567.59       1.2353002    0.0051731101
      6574.16       1.2215819    0.0051451679
      6580.73       1.2023824    0.0051945109
      6587.31       1.1955013    0.0052023405
      6593.90       1.1901329    0.0051746698
      6600.50       1.1828304    0.0052249347
      6607.10       1.1736427    0.0052333433
      6613.70       1.1681802    0.0052061735
      6620.32       1.1627517    0.0052162583
      6626.94       1.1619185    0.0052297413
      6633.57       1.1597568    0.0052394808
      6640.20       1.1559957    0.0052501125
      6646.84       1.1489397    0.0052641465
      6653.49       1.1390362    0.0052744749
      6660.14       1.1284819    0.0052857462
      6666.80       1.1187876    0.0053002270
      6673.47       1.1070187    0.0053112257
      6680.14       1.0934157    0.0052849254
      6686.82       1.0809447    0.0053380428
      6693.51       1.0663403    0.0053498036
      6700.20       1.0526083    0.0053233829
      6706.90       1.0399451    0.0053776713
      6713.61       1.0301800    0.0053524031
      6720.32       1.0187027    0.0053636270
      6727.05       1.0109374    0.0053827561
      6733.77       1.0052721    0.0053956798
      6740.51      0.99625013    0.0054168778
      6747.25      0.99120535    0.0054571898
      6754.00      0.99600747    0.0054716025
      6760.75      0.99700561    0.0054873484
      6767.51      0.99288264    0.0055132181
      6774.28      0.98660325    0.0055284088
      6781.05      0.98583389    0.0056421525
      6787.84      0.98309051    0.0057193957
      6794.62      0.97519359    0.0057793756
      6801.42      0.96958129    0.0059366797
      6808.22      0.96136856    0.0059950694
      6815.03      0.95478439    0.0061395910
      6821.85      0.94515607    0.0061557935
      6828.67      0.94318164    0.0061895586
      6835.50      0.94137093    0.0061956912
      6842.33      0.93670023    0.0061736891
      6849.17      0.93631219    0.0061200494
      6856.02      0.93873264    0.0060714928
      6862.88      0.94036079    0.0059735305
      6869.74      0.94086623    0.0059897199
      6876.61      0.94455010    0.0059356475
      6883.49      0.95797032    0.0059568859
      6890.37      0.96074752    0.0058925759
      6897.27      0.96081964    0.0059275969
      6904.16      0.96224267    0.0058872591
      6911.07      0.96454310    0.0059296833
      6917.98      0.96386074    0.0058952335
      6924.89      0.96497955    0.0059031071
      6931.82      0.96303052    0.0059219497
      6938.75      0.95958264    0.0059369700
      6945.69      0.95811081    0.0059621946
      6952.64      0.95959805    0.0059785719
      6959.59      0.95972663    0.0060013026
      6966.55      0.95846461    0.0059755860
      6973.52      0.95857982    0.0060324763
      6980.49      0.96103211    0.0060052376
      6987.47      0.95944741    0.0060645280
      6994.46      0.95464354    0.0060398168
      7001.46      0.95023554    0.0061009012
      7008.46      0.94919168    0.0060764254
      7015.46      0.95771123    0.0061383847
      7022.48      0.95761419    0.0061162953
      7029.51      0.95114601    0.0061423642
      7036.53      0.95115599    0.0061642565
      7043.57      0.94967788    0.0061983363
      7050.62      0.95003535    0.0062248512
      7057.66      0.94754823    0.0062617973
      7064.72      0.94024723    0.0062529549
      7071.79      0.93150545    0.0063397222
      7078.86      0.92435505    0.0063502279
      7085.94      0.91410986    0.0064608870
      7093.03      0.90138703    0.0065049465
      7100.12      0.89125414    0.0066189556
      7107.22      0.88408322    0.0067022546
      7114.33      0.87717611    0.0068050073
      7121.44      0.86353134    0.0069304732
      7128.56      0.85581765    0.0069370536
      7135.69      0.85157377    0.0069899745
      7142.83      0.85207736    0.0070158277
      7149.97      0.85379092    0.0070403743
      7157.12      0.84973781    0.0070079194
      7164.28      0.84559991    0.0070679092
      7171.44      0.84743629    0.0070983154
      7178.62      0.84859059    0.0070839854
      7185.80      0.85059473    0.0071750176
      7192.98      0.85250837    0.0071617630
      7200.17      0.85425490    0.0072478146
      7207.38      0.84884545    0.0072208646
      7214.58      0.84558709    0.0072334365
      7221.80      0.84609644    0.0072358348
      7229.02      0.84228372    0.0072381081
      7236.25      0.83364840    0.0072450876
      7243.49      0.82924700    0.0071976347
      7250.73      0.83244371    0.0072466512
      7257.98      0.83055399    0.0072401795
      7265.24      0.81978460    0.0071863861
      7272.51      0.80809255    0.0072357922
      7279.78      0.80292784    0.0072420227
      7287.06      0.79842014    0.0072018439
      7294.35      0.78464671    0.0072631511
      7301.64      0.76667482    0.0072849879
      7308.94      0.75775348    0.0072578757
      7316.25      0.75083342    0.0072867805
      7323.57      0.73964157    0.0073045252
      7330.89      0.72343087    0.0073308690
      7338.22      0.70820942    0.0073600043
      7345.56      0.69941119    0.0073369888
      7352.91      0.69012618    0.0074134594
      7360.26      0.67611705    0.0074494388
      7367.62      0.66059268    0.0074315975
      7374.99      0.64714279    0.0074690804
      7382.37      0.63828671    0.0075521251
      7389.75      0.62346469    0.0075935899
      7397.14      0.60773959    0.0075782711
      7404.53      0.59693053    0.0076203802
      7411.94      0.59256618    0.0077085654
      7419.35      0.58594542    0.0076954755
      7426.77      0.58347192    0.0077396044
      7434.20      0.58000574    0.0077847999
      7441.63      0.58208447    0.0078195960
      7449.07      0.58388981    0.0078739585
      7456.52      0.58052205    0.0079686647
      7463.98      0.57584858    0.0081078310
      7471.45      0.57925233    0.0081363432
      7478.92      0.59257258    0.0082359768
      7486.40      0.60281589    0.0082847227
      7493.88      0.60022931    0.0083983808
      7501.38      0.59933524    0.0087171016
      7508.88      0.59911715    0.0091709294
      7516.39      0.59165892    0.0097527850
      7523.91      0.57865350     0.010255145
      7531.43      0.55834166     0.010999866
      7538.96      0.55079729     0.011768117
      7546.50      0.53605676     0.012458691
      7554.05      0.50657702     0.012935986
      7561.60      0.48674307     0.012943165
      7569.16      0.48655182     0.012947859
      7576.73      0.48625022     0.012511688
      7584.31      0.47146271     0.011898035
      7591.89      0.45815874     0.011280768
      7599.49      0.46520933     0.010688602
      7607.09      0.48097993     0.010240082
      7614.70      0.48433668    0.0098994577
      7622.31      0.48230793    0.0096907080
      7629.93      0.47757360    0.0094627372
      7637.56      0.48191852    0.0093708154
      7645.20      0.48388115    0.0093193093
      7652.85      0.47362803    0.0092773182
      7660.50      0.46784084    0.0092552726
      7668.16      0.47061373    0.0092022341
      7675.83      0.46025498    0.0092170146
      7683.50      0.44496657    0.0092478024
      7691.19      0.43462902    0.0092899908
      7698.88      0.43492535    0.0093909808
      7706.58      0.43299468    0.0094438860
      7714.29      0.42857467    0.0094995498
      7722.00      0.42415215    0.0094875025
      7729.73      0.42349253    0.0095466237
      7737.45      0.42787898    0.0096063765
      7745.19      0.43209253    0.0096669431
      7752.94      0.43387041    0.0097285490
      7760.69      0.42725814    0.0097905448
      7768.45      0.42471889    0.0098537185
      7776.22      0.42432323    0.0098466689
      7784.00      0.42849060    0.0099131829
      7791.78      0.42683778    0.0099813910
      7799.57      0.42821894     0.010051888
      7807.37      0.43584534     0.010125063
      7815.18      0.43819820     0.010199487
      7822.99      0.43384559     0.010271513
      7830.82      0.43654659     0.010339790
      7838.65      0.44113783     0.010406618
      7846.49      0.43844786     0.010472889
      7854.34      0.43480063     0.010462682
      7862.19      0.43608401     0.010528011
      7870.05      0.44058954     0.010593128
      7877.93      0.44159525     0.010658956
      7885.80      0.43671587     0.010726409
      7893.69      0.43168084     0.010796381
      7901.58      0.43552884     0.010868287
      7909.49      0.43184568     0.010940023
      7917.40      0.42374331     0.011012146
      7925.31      0.42245182     0.011084519
      7933.24      0.42194849     0.011155467
      7941.17      0.43425818     0.011224053
      7949.11      0.43089502     0.011292255
      7957.06      0.41919851     0.011362326
      7965.02      0.40626586     0.011433837
      7972.98      0.39358249     0.011503637
      7980.96      0.38287302     0.011573478
      7988.94      0.37060914     0.011648826
      7996.93      0.35418887     0.011729410
      8004.93      0.34653495     0.011818023
      8012.93      0.34355927     0.011917787
      8020.95      0.34116711     0.011971576
      8028.97      0.33189081     0.012095446
      8036.99      0.32588322     0.012241107
      8045.03      0.33301018     0.012409152
      8053.08      0.33843521     0.012594004
      8061.13      0.34263886     0.012790903
      8069.20      0.34310393     0.013003493
      8077.26      0.35081383     0.013224261
      8085.34      0.35453777     0.013415854
      8093.43      0.36554958     0.013549401
      8101.52      0.35647596     0.013577733
      8109.62      0.34101166     0.013672256
      8117.73      0.33191533     0.013751644
      8125.85      0.32973529     0.013820154
      8133.98      0.33639315     0.013877322
      8142.11      0.33033080     0.013924645
      8150.25      0.32467992     0.013968761
      8158.41      0.33572281     0.013943852
      8166.56      0.34691067     0.014007757
      8174.73      0.35038235     0.014070083
      8182.91      0.35787566     0.014121743
      8191.09      0.37093550     0.014261407
      8199.28      0.38881403     0.014301361
      8207.48      0.39373866     0.014261048
      8215.69      0.39181641     0.014302041
      8223.91      0.39489824     0.014370166
      8232.13      0.40754451     0.014462262
      8240.36      0.41787793     0.014525857
      8248.60      0.42307431     0.014541981
      8256.85      0.43307631     0.014470517
      8265.11      0.43895889     0.014496903
      8273.37      0.44266049     0.014623985
      8281.65      0.45044356     0.014667861
      8289.93      0.46199945     0.014715133
      8298.22      0.47237227     0.014676815
      8306.52      0.48530342     0.014723417
      8314.83      0.49799268     0.014778913
      8323.14      0.51235764     0.014844523
      8331.46      0.52982611     0.014937427
      8339.80      0.55600579     0.015006047
      8348.13      0.57174804     0.015078867
      8356.48      0.58346903     0.015155333
      8364.84      0.61135222     0.015160036
      8373.21      0.64002149     0.015244865
      8381.58      0.66098672     0.015433389
      8389.96      0.67493276     0.015522184
      8398.35      0.69604077     0.015534417
      8406.75      0.72103628     0.015628107
      8415.16      0.74755800     0.015725096
      8423.57      0.75391175     0.015846819
      8432.00      0.76683330     0.015943217
      8440.43      0.79709148     0.016041209
      8448.87      0.82818523     0.016056597
      8457.32      0.83259608     0.015964854
      8465.78      0.84347788     0.015980229
      8474.25      0.86586921     0.015894740
      8482.72      0.88618695     0.015910462
      8491.20      0.88681444     0.015829948
      8499.69      0.90567162     0.015851046
      8508.19      0.92437675     0.015777435
      8516.70      0.92316420     0.015731483
      8525.22      0.92161775     0.015665321
      8533.75      0.94150613     0.015693274
      8542.28      0.96285741     0.015632266
      8550.82      0.96006320     0.015575738
      8559.37      0.93831241     0.015609261
      8567.93      0.93968392     0.015559519
      8576.50      0.95124255     0.015592595
      8585.08      0.94647185     0.015487462
      8593.66      0.94331367     0.015522271
      8602.26      0.93915180     0.015477540
      8610.86      0.93387382     0.015514768
      8619.47      0.92007638     0.015474647
      8628.09      0.91977552     0.015510529
      8636.72      0.92647168     0.015421383
      8645.36      0.91834801     0.015460070
      8654.00      0.89467332     0.015500197
      8662.66      0.88635041     0.015468110
      8671.32      0.89519434     0.015509420
      8679.99      0.89515097     0.015432663
      8688.67      0.87254515     0.015477084
      8697.36      0.85874895     0.015451560
      8706.06      0.84921262     0.015499192
      8714.76      0.84580753     0.015435347
      8723.48      0.84257118     0.015487678
      8732.21      0.83993979     0.015474758
      8740.93      0.82925834     0.015533155
      8749.68      0.80916471     0.015491180
      8758.43      0.79275047     0.015549199
      8767.19      0.79014276     0.015549051
      8775.96      0.78640866     0.015576117
      8784.73      0.77501900     0.015790966
      8793.52      0.75427294     0.016109943
      8802.31      0.73317559     0.016481442
      8811.11      0.72286018     0.016838868
      8819.92      0.72140674     0.017360727
      8828.75      0.70636457     0.018024711
      8837.57      0.68583292     0.018853225
      8846.41      0.66148993     0.019780140
      8855.26      0.64413601     0.021113452
      8864.12      0.63229612     0.023041684
      8872.98      0.61594110     0.025362025
      8881.85      0.59344686     0.028371769
      8890.73      0.57171949     0.031818522
      8899.63      0.55728833     0.036677582
      8908.52      0.53995864     0.043401208
      8917.43      0.49899075     0.051347049
