# starting wavelength =        3393.4000
# ending wavelength =        7240.9400
# O2 telluric scale =        0
# O2 telluric shift =        0
# H2O telluric scale =        0
# H2O telluric shift =        0
      3395.48     -0.32650429      0.46365918
      3398.88     -0.26820258      0.39367757
      3402.28     -0.19020831      0.33811650
      3405.68     -0.14625211      0.30225404
      3409.09    -0.094404591      0.26676200
      3412.49   -0.0027487620      0.23906118
      3415.91    0.0014777506      0.21749777
      3419.32     0.018226726      0.19783005
      3422.74     0.062004133      0.18551670
      3426.17     0.049498467      0.17592548
      3429.59     0.075682740      0.16838749
      3433.02     0.048098106      0.16242269
      3436.45     0.082312987      0.15764123
      3439.89     0.083668500      0.15341222
      3443.33      0.14558269      0.14991108
      3446.78      0.20679111      0.14695937
      3450.22      0.15134473      0.14348918
      3453.67      0.21487177      0.14135162
      3457.13      0.19733966      0.14017850
      3460.58      0.17226738      0.13974501
      3464.04     0.089886580      0.14004321
      3467.51     0.098079052      0.13871408
      3470.98      0.12803344      0.13900289
      3474.45      0.15270059      0.13928796
      3477.92      0.10605958      0.13885711
      3481.40      0.12652969      0.13826271
      3484.88     0.079569920      0.13782735
      3488.37     0.047658968      0.13813445
      3491.86     0.046694468      0.13843021
      3495.35     0.049825158      0.13710522
      3498.84     0.097425449      0.13740626
      3502.34     0.043435153      0.13697808
      3505.84     0.065686178      0.13731112
      3509.35     0.048970206      0.13669557
      3512.86     0.031043623      0.13628221
      3516.37     0.092816926      0.13658621
      3519.89      0.10788953      0.13692573
      3523.41     0.043586034      0.13556911
      3526.93     0.066241327      0.13589968
      3530.46     0.047000870      0.13623315
      3533.99     0.064676697      0.13487928
      3537.53     0.016690952      0.13521522
      3541.06     0.035184770      0.13478318
      3544.60      0.10612769      0.13514509
      3548.15      0.20205406      0.13453419
      3551.70      0.20147235      0.13412493
      3555.25      0.26857321      0.13445650
      3558.80      0.29984669      0.13388336
      3562.36      0.28945899      0.13344109
      3565.92      0.26305619      0.13381150
      3569.49      0.30569680      0.13416638
      3573.06      0.20144555      0.13279443
      3576.64      0.18485190      0.13315010
      3580.21      0.20642670      0.13353804
      3583.79      0.20819277      0.13214237
      3587.38      0.17558554      0.13252599
      3590.96      0.16583616      0.13290501
      3594.55      0.15306087      0.13331403
      3598.15      0.12642294      0.13189448
      3601.75      0.12878149      0.13229903
      3605.35      0.15547013      0.13269945
      3608.96      0.13792510      0.13129244
      3612.56      0.11384315      0.13168682
      3616.18      0.16804778      0.13211711
      3619.79      0.11488514      0.13152249
      3623.41      0.16819411      0.13110790
      3627.04      0.13721374      0.13151970
      3630.66      0.17138469      0.13095610
      3634.29      0.24015677      0.13050737
      3637.93      0.28340410      0.13096906
      3641.57      0.39851546      0.13036640
      3645.21      0.51361430      0.13082467
      3648.86      0.51966377      0.13038302
      3652.50      0.48518560      0.12980946
      3656.16      0.49221084      0.13026995
      3659.81      0.48569502      0.13074384
      3663.47      0.46034267      0.12926368
      3667.14      0.46724355      0.12972741
      3670.80      0.43512474      0.13023070
      3674.48      0.38950130      0.12963687
      3678.15      0.39582405      0.12922760
      3681.83      0.36287906      0.12970299
      3685.51      0.35483562      0.12913505
      3689.20      0.32364202      0.12964754
      3692.88      0.27476638      0.13017662
      3696.58      0.26241178      0.12864239
      3700.27      0.27852876      0.12915667
      3703.98      0.23761790      0.12972935
      3707.68      0.28210719      0.12912714
      3711.39      0.24298535      0.12969482
      3715.10      0.27575091      0.12811618
      3718.81      0.22840038      0.12866573
      3722.53      0.20583775      0.12925996
      3726.26      0.18420854      0.12866329
      3729.98      0.19682144      0.12926683
      3733.71      0.12162700      0.12881126
      3737.45     0.064575379      0.12823344
      3741.18     0.050585086      0.12885929
      3744.93     0.031677331      0.12946758
      3748.67     0.062692816      0.12890667
      3752.42     0.067319070      0.12955241
      3756.17     0.084749959      0.12786841
      3759.93      0.12734409      0.12853430
      3763.69      0.15234398      0.12917530
      3767.45      0.19972868      0.12860728
      3771.22      0.21495094      0.12930209
      3774.99      0.21271359      0.12871291
      3778.77      0.28023807      0.12829474
      3782.54      0.25400251      0.12768630
      3786.33      0.26730174      0.12838839
      3790.11      0.25904643      0.12668408
      3793.90      0.25143774      0.12608967
      3797.70      0.25074271      0.12570343
      3801.50      0.24781118      0.12508850
      3805.30      0.24735860      0.12450581
      3809.10      0.24593396      0.12411359
      3812.91      0.20042504      0.12350955
      3816.73      0.21947690      0.12293628
      3820.54      0.24075679      0.12254323
      3824.36      0.25695070      0.12194981
      3828.19      0.27860729      0.12030671
      3832.02      0.28256393      0.12099436
      3835.85      0.26013497      0.12041148
      3839.68      0.24955569      0.11878926
      3843.52      0.20055931      0.11825875
      3847.37      0.18516150      0.11888475
      3851.22      0.17626146      0.11727994
      3855.07      0.18040653      0.11675561
      3858.92      0.23226469      0.11737862
      3862.78      0.25555354      0.11579279
      3866.64      0.25479753      0.11527068
      3870.51      0.28125773      0.11477033
      3874.38      0.30418862      0.11432034
      3878.26      0.28757443      0.11379734
      3882.13      0.30293203      0.11329464
      3886.02      0.26512827      0.11286269
      3889.90      0.34868015      0.11233781
      3893.79      0.38877890      0.11183232
      3897.69      0.39246255      0.11035259
      3901.59      0.38648428      0.11089578
      3905.49      0.42243787      0.11038747
      3909.39      0.44364463      0.10894593
      3913.30      0.46887163      0.10842241
      3917.22      0.50203339      0.10896361
      3921.13      0.46557532      0.10846935
      3925.06      0.46176529      0.10703774
      3928.98      0.46450235      0.10652733
      3932.91      0.51395507      0.10706249
      3936.84      0.45908944      0.10567627
      3940.78      0.45619146      0.10515960
      3944.72      0.48859248      0.10465893
      3948.67      0.52462175      0.10433613
      3952.61      0.43496198      0.10381729
      3956.57      0.44793516      0.10331282
      3960.52      0.47830366      0.10282177
      3964.48      0.58104581      0.10147315
      3968.45      0.54230291      0.10199855
      3972.42      0.52367277      0.10150092
      3976.39      0.55896034      0.10101522
      3980.37      0.63647077     0.099684851
      3984.35      0.65504789     0.099224831
      3988.33      0.62519736     0.099713636
      3992.32      0.66939646     0.099231446
      3996.31      0.65737375     0.097919237
      4000.31      0.70809978     0.097461499
      4004.31      0.75500083     0.097013828
      4008.31      0.68918302     0.097477401
      4012.32      0.56454267     0.096185171
      4016.33      0.63250516     0.095731748
      4020.35      0.63715917     0.095284428
      4024.37      0.58376149     0.094846484
      4028.40      0.56402520     0.093604596
      4032.42      0.59456027     0.094031637
      4036.46      0.62150979     0.093586648
      4040.50      0.64652801     0.093149336
      4044.54      0.56984680     0.092719249
      4048.58      0.54820915     0.091510651
      4052.63      0.55000067     0.091068975
      4056.68      0.50650005     0.091485799
      4060.74      0.45213718     0.091053653
      4064.80      0.48026782     0.090627653
      4068.86      0.56411309     0.089457671
      4072.93      0.57409324     0.089021546
      4077.01      0.62582199     0.088591512
      4081.08      0.61457037     0.088167551
      4085.17      0.52095973     0.088575888
      4089.25      0.53053607     0.087454847
      4093.34      0.64726143     0.087025535
      4097.43      0.68188054     0.086601186
      4101.53      0.71931268     0.086182978
      4105.63      0.71034677     0.085768022
      4109.74      0.72581720     0.084661166
      4113.85      0.72530507     0.084259847
      4117.96      0.70166833     0.084665319
      4122.08      0.61049717     0.084250801
      4126.20      0.53732090     0.083840762
      4130.33      0.49150424     0.083434974
      4134.46      0.44198314     0.083033121
      4138.59      0.44371042     0.081959110
      4142.73      0.44770409     0.081567593
      4146.88      0.38582845     0.081179429
      4151.02      0.38633788     0.080794512
      4155.18      0.42212342     0.080412748
      4159.33      0.44395396     0.080034286
      4163.49      0.47406818     0.080382259
      4167.65      0.51795526     0.079340453
      4171.82      0.58042796     0.078958274
      4175.99      0.57868115     0.078579647
      4180.17      0.54250634     0.078202654
      4184.35      0.47438108     0.077830256
      4188.54      0.57919068     0.077459464
      4192.72      0.61523553     0.077091381
      4196.92      0.57148071     0.076724504
      4201.11      0.54741886     0.075755499
      4205.31      0.55120880     0.075388468
      4209.52      0.54899424     0.075024386
      4213.73      0.58027850     0.074662984
      4217.94      0.58734158     0.074304039
      4222.16      0.58943649     0.073947355
      4226.38      0.65258669     0.073592774
      4230.61      0.62815280     0.073240204
      4234.84      0.62678978     0.072889519
      4239.08      0.67534682     0.072540754
      4243.32      0.71734668     0.072193754
      4247.56      0.69024400     0.071283347
      4251.81      0.67132094     0.070942657
      4256.06      0.68117086     0.070603701
      4260.32      0.68850952     0.070266623
      4264.58      0.74398976     0.069931496
      4268.84      0.81737065     0.069598362
      4273.11      0.80441572     0.069267470
      4277.38      0.70468039     0.068938677
      4281.66      0.70645644     0.068609317
      4285.94      0.75011181     0.068282449
      4290.23      0.73473602     0.067957584
      4294.52      0.78015125     0.067634641
      4298.81      0.78334336     0.067313581
      4303.11      0.76368044     0.066993995
      4307.42      0.74174771     0.066675946
      4311.72      0.63108537     0.066359296
      4316.04      0.58528147     0.066044050
      4320.35      0.50582501     0.065730290
      4324.67      0.41753728     0.065417738
      4329.00      0.37404640     0.065106579
      4333.33      0.35875041     0.064796925
      4337.66      0.39379253     0.064488623
      4342.00      0.34813610     0.064181855
      4346.34      0.37617025     0.063876713
      4350.69      0.41766020     0.063573312
      4355.04      0.43278000     0.063271864
      4359.39      0.48489005     0.062972297
      4363.75      0.53959779     0.062674172
      4368.12      0.57880402     0.062377733
      4372.48      0.59960686     0.062083312
      4376.86      0.64880008     0.061790850
      4381.23      0.69963157     0.060961676
      4385.61      0.70784583     0.060675546
      4390.00      0.72455014     0.060391165
      4394.39      0.72926641     0.060108520
      4398.79      0.70187065     0.059827641
      4403.18      0.67214868     0.059548657
      4407.59      0.74381775     0.059271339
      4412.00      0.80594460     0.058995917
      4416.41      0.83316868     0.058722458
      4420.82      0.86665646     0.058451061
      4425.25      0.86001387     0.058181846
      4429.67      0.87780388     0.057404151
      4434.10      0.88379401     0.057135370
      4438.54      0.86647866     0.056869034
      4442.97      0.85467795     0.056605096
      4447.42      0.81848481     0.056342812
      4451.86      0.79824870     0.056082525
      4456.32      0.77356688     0.055824885
      4460.77      0.75739367     0.055569877
      4465.24      0.76127467     0.054848758
      4469.70      0.71276420     0.055012100
      4474.17      0.73157319     0.054756576
      4478.65      0.71525248     0.054503403
      4483.12      0.72809926     0.054252643
      4487.61      0.74200811     0.054004370
      4492.09      0.75562846     0.053758534
      4496.59      0.74344400     0.053062077
      4501.08      0.73875693     0.052823637
      4505.58      0.74965990     0.052587892
      4510.09      0.74841707     0.052354976
      4514.60      0.74154562     0.052125000
      4519.12      0.74197539     0.052261422
      4523.63      0.73610301     0.051585635
      4528.16      0.73690366     0.051355536
      4532.69      0.72050316     0.051128843
      4537.22      0.71497958     0.050904812
      4541.76      0.71871410     0.050683449
      4546.30      0.75268415     0.050023563
      4550.85      0.76764721     0.049800318
      4555.40      0.77675651     0.049949485
      4559.95      0.76764615     0.049731627
      4564.51      0.75404299     0.049517317
      4569.08      0.74597318     0.048884774
      4573.65      0.72720536     0.048667948
      4578.22      0.72027576     0.048454518
      4582.80      0.72589891     0.048244269
      4587.38      0.73079039     0.048395870
      4591.97      0.74629386     0.047783712
      4596.56      0.74022865     0.047572869
      4601.16      0.70192774     0.047365841
      4605.76      0.68246537     0.047162690
      4610.37      0.66872813     0.046578767
      4614.98      0.64301059     0.046717640
      4619.59      0.63569820     0.046514414
      4624.21      0.64407767     0.046315589
      4628.84      0.65183583     0.045743248
      4633.47      0.65904306     0.045554171
      4638.10      0.65197518     0.045690526
      4642.74      0.64149022     0.045496106
      4647.38      0.63438939     0.044936684
      4652.03      0.64295815     0.044753077
      4656.68      0.65493078     0.044573984
      4661.34      0.66578795     0.044703744
      4666.00      0.66188756     0.044155550
      4670.67      0.62122461     0.043977064
      4675.33      0.58795659     0.043803203
      4680.01      0.57097422     0.043261853
      4684.69      0.55749608     0.043397315
      4689.38      0.52512144     0.043224556
      4694.07      0.52120654     0.043056934
      4698.76      0.52993539     0.042526684
      4703.46      0.48750939     0.042662982
      4708.16      0.49134857     0.042497678
      4712.87      0.46647222     0.041983943
      4717.58      0.48123319     0.041816363
      4722.30      0.48172688     0.041956085
      4727.03      0.49298395     0.041457197
      4731.75      0.47638554     0.041291476
      4736.48      0.48828421     0.041131367
      4741.22      0.50045383     0.040944561
      4745.96      0.50828298     0.040780986
      4750.71      0.50310238     0.040623206
      4755.46      0.50535422     0.040152407
      4760.22      0.48191251     0.040283665
      4764.97      0.48153519     0.040128512
      4769.74      0.50462391     0.039664737
      4774.51      0.53566233     0.039798433
      4779.29      0.52445080     0.039646477
      4784.07      0.52610937     0.039190407
      4788.85      0.52502682     0.039052651
      4793.64      0.49893353     0.039178454
      4798.43      0.49492011     0.038730353
      4803.23      0.50710474     0.038597073
      4808.03      0.53273789     0.038420373
      4812.84      0.51328975     0.038284894
      4817.66      0.53538585     0.038156216
      4822.48      0.55319994     0.037983310
      4827.30      0.59453878     0.037852651
      4832.12      0.60756135     0.037425553
      4836.96      0.62168386     0.037558575
      4841.79      0.63491561     0.037432988
      4846.63      0.65416940     0.037010923
      4851.48      0.66993439     0.037146933
      4856.33      0.66908875     0.036736484
      4861.19      0.70111050     0.036608637
      4866.05      0.69899802     0.036748005
      4870.92      0.66363491     0.036340767
      4875.79      0.68577773     0.036219260
      4880.66      0.66458561     0.036080861
      4885.55      0.61976150     0.035959071
      4890.43      0.61916816     0.035572656
      4895.32      0.61378283     0.035706034
      4900.22      0.58949514     0.035590782
      4905.12      0.56818178     0.035460653
      4910.02      0.59945542     0.035344975
      4914.94      0.61153237     0.034971274
      4919.85      0.61838187     0.035105771
      4924.77      0.61200463     0.034734198
      4929.70      0.60023192     0.034635601
      4934.62      0.57900465     0.034503037
      4939.56      0.56094410     0.034404481
      4944.50      0.54511529     0.034277969
      4949.44      0.54593225     0.034179667
      4954.39      0.55943294     0.034316867
      4959.35      0.56060691     0.033961314
      4964.31      0.57719897     0.033872330
      4969.27      0.62961872     0.033748379
      4974.24      0.62160730     0.033660417
      4979.22      0.60636862     0.033542049
      4984.20      0.63791914     0.033455662
      4989.18      0.64514513     0.033110104
      4994.17      0.66196482     0.033256675
      4999.16      0.70963415     0.032916762
      5004.16      0.77372844     0.033063589
      5009.17      0.79091978     0.032728061
      5014.18      0.82065002     0.032633627
      5019.19      0.84293399     0.032544033
      5024.21      0.82435087     0.032453192
      5029.23      0.81107136     0.032365372
      5034.26      0.78646539     0.032276998
      5039.30      0.80108203     0.032191389
      5044.34      0.82725924     0.031883155
      5049.39      0.84118519     0.032021837
      5054.43      0.83359866     0.031717981
      5059.49      0.86438851     0.031858295
      5064.55      0.88171967     0.031559251
      5069.61      0.87042841     0.031700531
      5074.68      0.86819289     0.031405660
      5079.76      0.86620534     0.031319913
      5084.84      0.85202788     0.031256984
      5089.92      0.86242401     0.031173049
      5095.01      0.88988539     0.031113535
      5100.11      0.88807770     0.031031099
      5105.21      0.89233789     0.030744496
      5110.31      0.88702307     0.030893740
      5115.42      0.91290838     0.030609123
      5120.54      0.91886933     0.030761564
      5125.66      0.91679494     0.030689230
      5130.79      0.93801796     0.030634791
      5135.92      0.96780644     0.030563142
      5141.05      0.97708621     0.030289265
      5146.20      0.97630959     0.030442675
      5151.34      0.97015811     0.030169376
      5156.49       1.0170548     0.030112976
      5161.65       1.0216842     0.030055598
      5166.81       1.0513238     0.029999284
      5171.98       1.0572070     0.029947210
      5177.15       1.0592824     0.029891099
      5182.33       1.0569369     0.029841004
      5187.51       1.0864669     0.029788135
      5192.70       1.0874040     0.029737742
      5197.89       1.1043675     0.029485820
      5203.09       1.1316500     0.029640009
      5208.29       1.1433631     0.029395045
      5213.50       1.1977644     0.029344033
      5218.72       1.2323240     0.029501977
      5223.93       1.2304717     0.029258699
      5229.16       1.2458051     0.029213084
      5234.39       1.2350608     0.029179978
      5239.62       1.2555781     0.029133547
      5244.86       1.2385592     0.029092626
      5250.11       1.2310188     0.029061537
      5255.36       1.2526635     0.029019918
      5260.61       1.2409507     0.028982852
      5265.87       1.2514662     0.028953719
      5271.14       1.2291286     0.028915380
      5276.41       1.2378795     0.028685138
      5281.69       1.2330712     0.028655799
      5286.97       1.2251969     0.028820473
      5292.26       1.2372723     0.028593164
      5297.55       1.2665107     0.028566490
      5302.85       1.2806570     0.028734370
      5308.15       1.3030017     0.028510202
      5313.46       1.3343926     0.028485839
      5318.77       1.3504029     0.028465280
      5324.09       1.3709165     0.028436052
      5329.42       1.3940527     0.028414731
      5334.75       1.4075915     0.028397133
      5340.08       1.4404385     0.028185216
      5345.42       1.4238009     0.028353129
      5350.77       1.4171712     0.028337006
      5356.12       1.4399930     0.028131243
      5361.48       1.4418320     0.028113758
      5366.83       1.4459416     0.028285338
      5372.20       1.4286366     0.028086286
      5377.58       1.4249669     0.028070145
      5382.95       1.4187834     0.028056960
      5388.34       1.4016933     0.028046371
      5393.72       1.4151650     0.028035811
      5399.12       1.3937037     0.028023750
      5404.52       1.3753605     0.028014705
      5409.92       1.3761421     0.027819599
      5415.33       1.3737422     0.027816004
      5420.75       1.3849957     0.027994095
      5426.17       1.3901061     0.027988553
      5431.60       1.3793639     0.027796328
      5437.03       1.3786735     0.027795468
      5442.47       1.3975156     0.027796447
      5447.91       1.4020462     0.027976006
      5453.36       1.4266272     0.027786026
      5458.81       1.4364373     0.027787572
      5464.27       1.4357974     0.027790856
      5469.73       1.4571104     0.027795797
      5475.20       1.4485412     0.027613305
      5480.68       1.4643902     0.027792869
      5486.16       1.4539582     0.027798474
      5491.65       1.4449902     0.027805482
      5497.14       1.4252998     0.027631376
      5502.64       1.3847755     0.027637458
      5508.14       1.3555252     0.027645171
      5513.65       1.3608263     0.027654387
      5519.16       1.3506669     0.027665235
      5524.68       1.3335209     0.027673150
      5530.20       1.2947268     0.027682884
      5535.73       1.2630599     0.027693773
      5541.27       1.2605809     0.027706094
      5546.81       1.2532901     0.027719756
      5552.36       1.2323559     0.027734481
      5557.91       1.2453662     0.027565726
      5563.47       1.2387201     0.027582495
      5569.04       1.2606005     0.027600538
      5574.60       1.2823078     0.027793033
      5580.18       1.2944045     0.027809805
      5585.76       1.2950116     0.027828371
      5591.35       1.2955778     0.027661984
      5596.94       1.3062181     0.027682499
      5602.53       1.2963264     0.027703882
      5608.14       1.2936348     0.027726446
      5613.75       1.2873874     0.027749649
      5619.36       1.2782818     0.027773845
      5624.98       1.2532167     0.027798554
      5630.60       1.2285724     0.027640566
      5636.23       1.2099999     0.027664834
      5641.87       1.1894727     0.027689639
      5647.51       1.1765426     0.027714957
      5653.16       1.1694376     0.027741083
      5658.82       1.1512309     0.027767943
      5664.47       1.1795789     0.027795475
      5670.14       1.2056204     0.027823871
      5675.81       1.2150306     0.027853301
      5681.48       1.1966800     0.027883703
      5687.17       1.2004901     0.027732680
      5692.85       1.1930619     0.027766585
      5698.55       1.1819548     0.027801530
      5704.25       1.1645375     0.027835377
      5709.95       1.1348247     0.027870194
      5715.66       1.1174386     0.027908160
      5721.38       1.1029698     0.027953037
      5727.10       1.0849494     0.028007106
      5732.83       1.0685036     0.028065949
      5738.56       1.0564805     0.028125248
      5744.30       1.0566106     0.028187504
      5750.04       1.0759579     0.028254341
      5755.79       1.0846958     0.028317634
      5761.55       1.1182302     0.028371023
      5767.31       1.1213608     0.028418434
      5773.08       1.1533293     0.028461980
      5778.85       1.1784011     0.028501265
      5784.63       1.1932484     0.028535900
      5790.41       1.1946665     0.028567816
      5796.21       1.2000153     0.028600482
      5802.00       1.2020599     0.028635874
      5807.81       1.1718308     0.028671219
      5813.61       1.1379364     0.028532642
      5819.43       1.1360929     0.028560496
      5825.25       1.1304966     0.028585734
      5831.07       1.1186688     0.028610580
      5836.90       1.0881288     0.028636645
      5842.74       1.0705855     0.028659910
      5848.58       1.0834348     0.028679897
      5854.43       1.0898139     0.028704178
      5860.29       1.1011527     0.028734896
      5866.15       1.1020784     0.028766376
      5872.01       1.1151979     0.028625416
      5877.89       1.1210034     0.028653841
      5883.76       1.1323412     0.028687558
      5889.65       1.1261003     0.028724277
      5895.54       1.1395978     0.028762251
      5901.43       1.1465742     0.028801990
      5907.34       1.1350507     0.028843508
      5913.24       1.1316405     0.028721224
      5919.16       1.1157926     0.028764271
      5925.08       1.1092941     0.028807558
      5931.00       1.1185473     0.028851654
      5936.93       1.1159175     0.029077345
      5942.87       1.0969793     0.029120958
      5948.81       1.0737671     0.028998906
      5954.76       1.0533705     0.029043750
      5960.72       1.0502382     0.029088839
      5966.68       1.0200581     0.029134550
      5972.64       1.0246406     0.029180987
      5978.62       1.0115780     0.029057375
      5984.60       1.0087489     0.029100968
      5990.58      0.97962440     0.029330378
      5996.57      0.93133412     0.029375343
      6002.57      0.90873063     0.029421495
      6008.57      0.90259843     0.029299289
      6014.58      0.88329847     0.029342440
      6020.60      0.87138105     0.029386568
      6026.62      0.86438786     0.029431397
      6032.65      0.85968130     0.029664607
      6038.68      0.86534350     0.029542889
      6044.72      0.85753845     0.029586080
      6050.76      0.86295526     0.029629919
      6056.81      0.84392625     0.029674881
      6062.87      0.84316943     0.029556536
      6068.93      0.86823286     0.029791918
      6075.00      0.90146787     0.029849530
      6081.08      0.90881430     0.029737131
      6087.16      0.96461661     0.029777784
      6093.25      0.98186857     0.029831367
      6099.34      0.99966022     0.029902151
      6105.44      0.99173490     0.030009272
      6111.54       1.0227182     0.030109667
      6117.66       1.0419081     0.030221027
      6123.78       1.0661410     0.030175093
      6129.90       1.0569685     0.030475800
      6136.03       1.0812250     0.030574854
      6142.17       1.0863427     0.030659157
      6148.31       1.0945680     0.030543739
      6154.46       1.1055747     0.030579054
      6160.61       1.0762916     0.030783713
      6166.77       1.0962845     0.030597613
      6172.94       1.0998882     0.030581387
      6179.11       1.1123573     0.030567525
      6185.29       1.1302171     0.030575595
      6191.48       1.1434556     0.030591363
      6197.67       1.1254537     0.030607128
      6203.87       1.1316858     0.030444061
      6210.07       1.1371030     0.030637708
      6216.28       1.1341285     0.030487993
      6222.50       1.1317906     0.030511272
      6228.72       1.1653582     0.030715820
      6234.95       1.1769627     0.030571577
      6241.19       1.1809758     0.030600616
      6247.42       1.2023424     0.030811820
      6253.67       1.2367604     0.030674301
      6259.93       1.2546894     0.030710595
      6266.19       1.2758491     0.030575855
      6272.46       1.3003848     0.030795984
      6278.73       1.3199519     0.030835250
      6285.01       1.3626279     0.030703120
      6291.29       1.3920150     0.030933853
      6297.58       1.3970803     0.030819760
      6303.88       1.4066392     0.030878475
      6310.19       1.4048893     0.030962733
      6316.50       1.3958997     0.031012503
      6322.81       1.3990180     0.031063694
      6329.14       1.3771977     0.031132034
      6335.47       1.3741341     0.031175651
      6341.80       1.3561239     0.031231891
      6348.14       1.3548960     0.031257702
      6354.49       1.3539464     0.031111872
      6360.85       1.3543989     0.031310669
      6367.21       1.3926370     0.031157781
      6373.57       1.3977634     0.031179505
      6379.95       1.4275218     0.031210159
      6386.33       1.4516767     0.031236881
      6392.72       1.4641959     0.031270038
      6399.11       1.4711931     0.031289094
      6405.51       1.4738233     0.031131944
      6411.92       1.4831743     0.031323214
      6418.32       1.4797992     0.031163479
      6424.74       1.4960746     0.031359623
      6431.17       1.4837772     0.031201129
      6437.60       1.4704395     0.031385681
      6444.04       1.4462932     0.031222427
      6450.48       1.4098987     0.031232440
      6456.94       1.3934225     0.031258820
      6463.39       1.3775431     0.031273626
      6469.85       1.3796524     0.031302203
      6476.33       1.3780320     0.031317440
      6482.80       1.3638443     0.031346280
      6489.28       1.3907942     0.031360186
      6495.77       1.3716290     0.031386293
      6502.27       1.3888861     0.031231479
      6508.77       1.3847019     0.031423091
      6515.28       1.3749368     0.031267712
      6521.80       1.3731514     0.031457654
      6528.32       1.4026851     0.031300825
      6534.85       1.4313563     0.031319490
      6541.38       1.4527871     0.031329833
      6547.92       1.4684008     0.031345929
      6554.47       1.4638406     0.031356063
      6561.03       1.4559943     0.031369362
      6567.59       1.4406077     0.031209013
      6574.16       1.4157588     0.031389239
      6580.73       1.3959256     0.031225276
      6587.31       1.3958374     0.031405165
      6593.90       1.3600508     0.031237563
      6600.50       1.3238670     0.031247989
      6607.10       1.3081925     0.031246002
      6613.70       1.3039477     0.031252109
      6620.32       1.2768826     0.031085521
      6626.94       1.2782502     0.031252795
      6633.57       1.2513633     0.031259485
      6640.20       1.2381183     0.031125866
      6646.84       1.2458803     0.031379268
      6653.49       1.2560735     0.031316303
      6660.14       1.2494517     0.031275172
      6666.80       1.2528794     0.031273754
      6673.47       1.2566964     0.031409719
      6680.14       1.2735323     0.031678563
      6686.82       1.2740014     0.031978041
      6693.51       1.3082818     0.032441853
      6700.20       1.3252534     0.032754317
      6706.90       1.3350529     0.033393093
      6713.61       1.3476355     0.033865725
      6720.32       1.3412372     0.033981549
      6727.05       1.3529353     0.034146107
      6733.77       1.3560983     0.034329353
      6740.51       1.3367775     0.033925440
      6747.25       1.3179446     0.033565689
      6754.00       1.2911984     0.033121766
      6760.75       1.2580262     0.032748629
      6767.51       1.2148680     0.032363993
      6774.28       1.1781163     0.032128312
      6781.05       1.1416465     0.031758360
      6787.84       1.1221418     0.031657541
      6794.62       1.1058592     0.031426854
      6801.42       1.0902816     0.031119914
      6808.22       1.0891139     0.030975355
      6815.03       1.1055961     0.031017130
      6821.85       1.1183100     0.030759511
      6828.67       1.1031271     0.030673078
      6835.50       1.0802618     0.030607257
      6842.33       1.0702617     0.030396643
      6849.17       1.0624178     0.030509314
      6856.02       1.0676261     0.030444888
      6862.88       1.0781466     0.030052783
      6869.74       1.0711850     0.029661336
      6876.61       1.0772210     0.029423601
      6883.49       1.0866053     0.028907500
      6890.37       1.0803247     0.028540831
      6897.27       1.0734650     0.028327710
      6904.16       1.0748340     0.027983892
      6911.07       1.0725653     0.027648773
      6917.98       1.0753273     0.027326947
      6924.89       1.0708983     0.027156325
      6931.82       1.0641083     0.026884028
      6938.75       1.0569099     0.026613604
      6945.69       1.0556094     0.026229743
      6952.64       1.0443841     0.026079037
      6959.59       1.0394811     0.025826101
      6966.55       1.0514879     0.025622703
      6973.52       1.0650306     0.025499904
      6980.49       1.0505559     0.025430905
      6987.47       1.0599087     0.025445609
      6994.46       1.0614350     0.025350424
      7001.46       1.0879884     0.025235994
      7008.46       1.0954854     0.025111281
      7015.46       1.1147657     0.024972552
      7022.48       1.1245918     0.024800868
      7029.51       1.1344481     0.024624706
      7036.53       1.1456132     0.024430031
      7043.57       1.1731980     0.024215364
      7050.62       1.2067943     0.023975795
      7057.66       1.2103400     0.023718643
      7064.72       1.2159284     0.023454031
      7071.79       1.2187824     0.023183021
      7078.86       1.2474919     0.022994663
      7085.94       1.2426831     0.022708882
      7093.03       1.2382895     0.022414934
      7100.12       1.2207628     0.022116504
      7107.22       1.2087201     0.021820364
      7114.33       1.1910437     0.021528459
      7121.44       1.1771109     0.021239420
      7128.56       1.1773370     0.021471021
      7135.69       1.1727812     0.021691860
      7142.83       1.1677373     0.022023965
      7149.97       1.1600551     0.022425586
      7157.12       1.1484736     0.022921246
      7164.28       1.1400440     0.023548151
      7171.44       1.1419526     0.024355437
      7178.62       1.1410384     0.025428951
      7185.80       1.1436052     0.026885521
      7192.98       1.1422241     0.028854873
      7200.17       1.1373363     0.031486778
      7207.38       1.1412884     0.034913892
      7214.58       1.1542256     0.039287512
      7221.80       1.1713328     0.044862044
      7229.02       1.1949394     0.051929620
      7236.25       1.2330892     0.060828125
