# starting wavelength =        4047.8600
# ending wavelength =        9029.7300
# O2 telluric scale =        0
# O2 telluric shift =        0
# H2O telluric scale =        0
# H2O telluric shift =        0
      4048.58       1.9703711      0.21699292
      4052.63       2.0077734      0.19869725
      4056.68       2.0422624      0.15695977
      4060.74       2.0881498      0.14667434
      4064.80       2.1194119      0.12074446
      4068.86       2.1472548      0.10825683
      4072.93       2.1789134      0.10361453
      4077.01       2.2226677     0.091215019
      4081.08       2.2286769     0.088292655
      4085.17       2.2363773     0.080842752
      4089.25       2.2722263     0.078790941
      4093.34       2.3099531     0.074189254
      4097.43       2.3266224     0.072598277
      4101.53       2.3453075     0.070964300
      4105.63       2.3600086     0.068678041
      4109.74       2.3774155     0.067396812
      4113.85       2.3859040     0.065797956
      4117.96       2.4010164     0.064644946
      4122.08       2.4212306     0.063483596
      4126.20       2.4404572     0.063237900
      4130.33       2.4114398     0.062993931
      4134.46       2.4458206     0.063743162
      4138.59       2.4667409     0.063499080
      4142.73       2.4132492     0.063256541
      4146.88       2.4119856     0.063016622
      4151.02       2.4373851     0.062777715
      4155.18       2.4397710     0.062539909
      4159.33       2.4588982     0.062302979
      4163.49       2.4430202     0.062066902
      4167.65       2.4265322     0.062886720
      4171.82       2.4013419     0.062635217
      4175.99       2.3544703     0.062385389
      4180.17       2.3327562     0.062137151
      4184.35       2.3373696     0.061890496
      4188.54       2.3405441     0.061645311
      4192.72       2.3339186     0.061401636
      4196.92       2.3332332     0.061159384
      4201.11       2.3356529     0.060918491
      4205.31       2.3363690     0.060678906
      4209.52       2.3088474     0.061444944
      4213.73       2.2780857     0.061203930
      4217.94       2.2568243     0.060965582
      4222.16       2.2309440     0.060727272
      4226.38       2.2130689     0.060488209
      4230.61       2.1966894     0.060253714
      4234.84       2.1971388     0.060018750
      4239.08       2.1820909     0.059784827
      4243.32       2.1650292     0.059551770
      4247.56       2.1548859     0.061274746
      4251.81       2.1443804     0.061036731
      4256.06       2.1175520     0.060799465
      4260.32       2.0769369     0.060562981
      4264.58       2.0335329     0.060327404
      4268.84       2.0020849     0.060092435
      4273.11       1.9807117     0.059858243
      4277.38       1.9708583     0.059624455
      4281.66       1.9604243     0.059392376
      4285.94       1.9416084     0.059161902
      4290.23       1.9351853     0.058931685
      4294.52       1.9270902     0.059789149
      4298.81       1.9196388     0.059548015
      4303.11       1.9270571     0.059307786
      4307.42       1.9229284     0.059068445
      4311.72       1.9264456     0.058830026
      4316.04       1.9419807     0.058592508
      4320.35       1.9702836     0.058355873
      4324.67       1.9892674     0.058120126
      4329.00       2.0243860     0.057885223
      4333.33       2.0565679     0.057651059
      4337.66       2.0500296     0.058440479
      4342.00       2.0606502     0.059276863
      4346.34       2.1043477     0.059037249
      4350.69       2.1378372     0.058798698
      4355.04       2.1572516     0.058562818
      4359.39       2.1960143     0.058327145
      4363.75       2.2236152     0.058091818
      4368.12       2.2295701     0.057856935
      4372.48       2.2132516     0.057622554
      4376.86       2.1773356     0.057388722
      4381.23       2.1458166     0.057155478
      4385.61       2.1193115     0.056922808
      4390.00       2.0880846     0.056690700
      4394.39       2.0442700     0.056459108
      4398.79       2.0283258     0.057337776
      4403.18       1.9499039     0.058209008
      4407.59       1.9009293     0.057971443
      4412.00       1.8448664     0.057734901
      4416.41       1.7851297     0.057499487
      4420.82       1.7259339     0.057266935
      4425.25       1.7135401     0.057034471
      4429.67       1.7159984     0.056802277
      4434.10       1.7243584     0.056570492
      4438.54       1.7290829     0.056339220
      4442.97       1.7593245     0.056108527
      4447.42       1.7900725     0.055878459
      4451.86       1.8089937     0.055649008
      4456.32       1.8898945     0.056595236
      4460.77       1.9441990     0.057557818
      4465.24       2.0183007     0.057321713
      4469.70       2.0768854     0.057086954
      4474.17       2.1020189     0.056853780
      4478.65       2.1200300     0.056621907
      4483.12       2.1305459     0.056391445
      4487.61       2.1242618     0.056162325
      4492.09       2.1050425     0.055936646
      4496.59       2.0893779     0.055711109
      4501.08       2.0567496     0.056668814
      4505.58       2.0301872     0.056422699
      4510.09       1.9721459     0.056176603
      4514.60       1.9543737     0.055930503
      4519.12       1.9695656     0.055684490
      4523.63       2.0053295     0.055441966
      4528.16       2.0093907     0.055200649
      4532.69       2.0067626     0.054960826
      4537.22       2.0263098     0.054723131
      4541.76       2.0393433     0.057160821
      4546.30       2.0872664     0.056912377
      4550.85       2.1469652     0.056665948
      4555.40       2.1692101     0.055067716
      4559.95       2.1725845     0.054834227
      4564.51       2.1697047     0.054600691
      4569.08       2.1560960     0.054367550
      4573.65       2.1375343     0.054135046
      4578.22       2.1105378     0.053903122
      4582.80       2.0832578     0.053671900
      4587.38       2.0664245     0.053444700
      4591.97       2.0489890     0.053219813
      4596.56       2.0234194     0.052997358
      4601.16       1.9877082     0.052777551
      4605.76       1.9708634     0.052560622
      4610.37       1.9384444     0.052346328
      4614.98       1.9099944     0.052134895
      4619.59       1.8809264     0.051926280
      4624.21       1.8792758     0.051722547
      4628.84       1.8972592     0.051520309
      4633.47       1.8808650     0.051319809
      4638.10       1.8564399     0.049738128
      4642.74       1.8462913     0.049513518
      4647.38       1.8358165     0.049290923
      4652.03       1.8240602     0.050237404
      4656.68       1.8046035     0.050015162
      4661.34       1.7948983     0.049796318
      4666.00       1.7986588     0.049580563
      4670.67       1.8078845     0.049368615
      4675.33       1.8191605     0.049160209
      4680.01       1.8404839     0.048955292
      4684.69       1.8454350     0.048753931
      4689.38       1.8511308     0.048558020
      4694.07       1.8520429     0.048364633
      4698.76       1.8503762     0.048173046
      4703.46       1.8798216     0.046745932
      4708.16       1.8899125     0.046525639
      4712.87       1.8797286     0.046308154
      4717.58       1.8716725     0.046095901
      4722.30       1.8469818     0.045887496
      4727.03       1.8371036     0.045683080
      4731.75       1.8267731     0.046562570
      4736.48       1.8047710     0.046361445
      4741.22       1.7884336     0.046164788
      4745.96       1.7615886     0.045972713
      4750.71       1.7414316     0.045785154
      4755.46       1.7585729     0.044508591
      4760.22       1.7536412     0.044290805
      4764.97       1.7433010     0.044076843
      4769.74       1.7451220     0.043866415
      4774.51       1.7434249     0.043659968
      4779.29       1.7505751     0.043456825
      4784.07       1.7487464     0.043260263
      4788.85       1.7435938     0.043068601
      4793.64       1.7391407     0.042881851
      4798.43       1.7297265     0.043713448
      4803.23       1.6991226     0.042545210
      4808.03       1.6900883     0.042327779
      4812.84       1.6721976     0.042117279
      4817.66       1.6481377     0.041911342
      4822.48       1.6360887     0.041710051
      4827.30       1.6379892     0.041513702
      4832.12       1.6455589     0.041322095
      4836.96       1.6467236     0.041135411
      4841.79       1.6593940     0.040953718
      4846.63       1.6982094     0.039873439
      4851.48       1.6963276     0.040630765
      4856.33       1.6857292     0.040418181
      4861.19       1.6816186     0.040212296
      4866.05       1.6838976     0.040012567
      4870.92       1.6913335     0.039819455
      4875.79       1.6911082     0.039634040
      4880.66       1.6952417     0.039454180
      4885.55       1.7040404     0.039279859
      4890.43       1.7315849     0.038244187
      4895.32       1.7468924     0.038084817
      4900.22       1.7596930     0.038766681
      4905.12       1.7681429     0.038563905
      4910.02       1.7781759     0.038369869
      4914.94       1.7961635     0.038183091
      4919.85       1.8064899     0.038004037
      4924.77       1.7968656     0.036992709
      4929.70       1.7893155     0.036832278
      4934.62       1.7780676     0.036678265
      4939.56       1.7636109     0.036530690
      4944.50       1.7200582     0.037157463
      4949.44       1.6792997     0.036968913
      4954.39       1.6352964     0.036787430
      4959.35       1.6062745     0.036612742
      4964.31       1.5812012     0.035636838
      4969.27       1.5620468     0.035480744
      4974.24       1.5613412     0.035332709
      4979.22       1.5795667     0.035191786
      4984.20       1.6122756     0.035058118
      4989.18       1.6630936     0.035597092
      4994.17       1.7076698     0.035424262
      4999.16       1.7750254     0.034478202
      5004.16       1.8330482     0.034328398
      5009.17       1.8844690     0.034185448
      5014.18       1.9199385     0.034049469
      5019.19       1.9494810     0.033920711
      5024.21       1.9894361     0.033799419
      5029.23       2.0138802     0.033518695
      5034.26       2.0197632     0.033363182
      5039.30       2.0115569     0.033215275
      5044.34       1.9874097     0.033076515
      5049.39       1.9566784     0.032945958
      5054.43       1.9295699     0.032823938
      5059.49       1.8866910     0.031900857
      5064.55       1.8300901     0.032430629
      5069.61       1.7789628     0.032285565
      5074.68       1.7320251     0.032148320
      5079.76       1.6916025     0.032019070
      5084.84       1.6617572     0.031897945
      5089.92       1.6328289     0.031018500
      5095.01       1.5991220     0.030868225
      5100.11       1.5726617     0.031382998
      5105.21       1.5498264     0.031246068
      5110.31       1.5209349     0.031118283
      5115.42       1.4960574     0.030999733
      5120.54       1.5120558     0.030154066
      5125.66       1.5187614     0.030007938
      5130.79       1.5311466     0.030510611
      5135.92       1.5536523     0.030379839
      5141.05       1.5792103     0.030257975
      5146.20       1.6046512     0.030145164
      5151.34       1.6372528     0.029320084
      5156.49       1.6614621     0.029178272
      5161.65       1.6823674     0.029045364
      5166.81       1.6946947     0.029540074
      5171.98       1.7043380     0.029423296
      5177.15       1.7022435     0.028647094
      5182.33       1.7049400     0.028503273
      5187.51       1.7012387     0.028369180
      5192.70       1.6854942     0.028244769
      5197.89       1.6529971     0.028734108
      5203.09       1.6376787     0.027999075
      5208.29       1.6246128     0.027854278
      5213.50       1.6090728     0.027719343
      5218.72       1.6074260     0.027594222
      5223.93       1.5976107     0.028068509
      5229.16       1.6036117     0.027363058
      5234.39       1.6180218     0.027216917
      5239.62       1.6264835     0.027082455
      5244.86       1.6330952     0.026958847
      5250.11       1.6458360     0.026845572
      5255.36       1.6684134     0.026742689
      5260.61       1.6768141     0.026600663
      5265.87       1.6756691     0.026469453
      5271.14       1.6728451     0.026348657
      5276.41       1.6664570     0.026238280
      5281.69       1.6622826     0.026139513
      5286.97       1.6466691     0.025998949
      5292.26       1.6361423     0.025869598
      5297.55       1.6332283     0.025751179
      5302.85       1.6254549     0.025644722
      5308.15       1.6217709     0.025545095
      5313.46       1.6045201     0.025410259
      5318.77       1.5885080     0.025287375
      5324.09       1.5680713     0.025176862
      5329.42       1.5546912     0.024564924
      5334.75       1.5549768     0.024971743
      5340.08       1.5496583     0.024843326
      5345.42       1.5352761     0.024726833
      5350.77       1.5233814     0.024118886
      5356.12       1.5084075     0.024027848
      5361.48       1.4892298     0.024409225
      5366.83       1.4744189     0.024288874
      5372.20       1.4650760     0.024181059
      5377.58       1.4603786     0.023594248
      5382.95       1.4642569     0.023512187
      5388.34       1.4582651     0.023869481
      5393.72       1.4634143     0.023759673
      5399.12       1.4704969     0.023179949
      5404.52       1.4725992     0.023096320
      5409.92       1.4840876     0.023023590
      5415.33       1.4795517     0.023348997
      5420.75       1.4780107     0.022775679
      5426.17       1.4751098     0.022690566
      5431.60       1.4798203     0.022617426
      5437.03       1.4900175     0.022948919
      5442.47       1.4675271     0.022384783
      5447.91       1.4500241     0.022301120
      5453.36       1.4286353     0.022229766
      5458.81       1.3995626     0.022564683
      5464.27       1.3819800     0.022009711
      5469.73       1.3744550     0.021927025
      5475.20       1.3706578     0.021855987
      5480.68       1.3688699     0.021796746
      5486.16       1.3707321     0.021642605
      5491.65       1.3697316     0.021561061
      5497.14       1.3787625     0.021492227
      5502.64       1.3946753     0.021435694
      5508.14       1.4169222     0.021287248
      5513.65       1.4229616     0.021210376
      5519.16       1.4279912     0.021145576
      5524.68       1.4396135     0.020622996
      5530.20       1.4511349     0.020946576
      5535.73       1.4514501     0.020872603
      5541.27       1.4433467     0.020811173
      5546.81       1.4285743     0.020293059
      5552.36       1.4103472     0.020614087
      5557.91       1.3911051     0.020544202
      5563.47       1.3844172     0.020487811
      5569.04       1.3793566     0.019973142
      5574.60       1.3596182     0.020294318
      5580.18       1.3394775     0.020231779
      5585.76       1.3270010     0.019748432
      5591.35       1.3135581     0.019667820
      5596.94       1.3052312     0.019989872
      5602.53       1.3020042     0.019932950
      5608.14       1.2941268     0.019446426
      5613.75       1.2894482     0.019371929
      5619.36       1.2869879     0.019694463
      5624.98       1.2839792     0.019234447
      5630.60       1.2808653     0.019154971
      5636.23       1.2677565     0.019469661
      5641.87       1.2731417     0.019034833
      5647.51       1.2717894     0.018950542
      5653.16       1.2726467     0.018879504
      5658.82       1.2763393     0.019198264
      5664.47       1.2879040     0.018754090
      5670.14       1.2944067     0.018678435
      5675.81       1.2941142     0.018616116
      5681.48       1.2872561     0.018564657
      5687.17       1.2843018     0.018484575
      5692.85       1.2805350     0.018419051
      5698.55       1.2708983     0.018383248
      5704.25       1.2735843     0.018301058
      5709.95       1.2653071     0.018233096
      5715.66       1.2654280     0.018179205
      5721.38       1.2765922     0.018129225
      5727.10       1.2808832     0.018059188
      5732.83       1.2834926     0.018002731
      5738.56       1.2819778     0.017965041
      5744.30       1.2807223     0.017895036
      5750.04       1.2809870     0.017842518
      5755.79       1.2872158     0.017485580
      5761.55       1.2861186     0.017771762
      5767.31       1.2890952     0.017723572
      5773.08       1.2763182     0.017370384
      5778.85       1.2664548     0.017667280
      5784.63       1.2518624     0.017616311
      5790.41       1.2331948     0.017251507
      5796.21       1.2073757     0.017536417
      5802.00       1.1774885     0.017474965
      5807.81       1.1339775     0.017106428
      5813.61       1.1045325     0.017381453
      5819.43       1.0904001     0.017315949
      5825.25       1.1092463     0.016948723
      5831.07       1.1357945     0.016915667
      5836.90       1.1699402     0.017165552
      5842.74       1.2411127     0.016797898
      5848.58       1.2968509     0.016761851
      5854.43       1.3703075     0.017003594
      5860.29       1.4489984     0.016638439
      5866.15       1.5030323     0.016602659
      5872.01       1.5642297     0.016839240
      5877.89       1.5929637     0.016477415
      5883.76       1.6072520     0.016443192
      5889.65       1.6148395     0.016378258
      5895.54       1.6161236     0.016333979
      5901.43       1.6072952     0.016303575
      5907.34       1.5618174     0.016240292
      5913.24       1.5211739     0.016201603
      5919.16       1.4662261     0.016178187
      5925.08       1.4059120     0.016119913
      5931.00       1.3701675     0.016085946
      5936.93       1.3395063     0.016067281
      5942.87       1.3229857     0.016009759
      5948.81       1.3065013     0.015980199
      5954.76       1.2985520     0.015651277
      5960.72       1.2982707     0.015908545
      5966.68       1.2857601     0.015883412
      5972.64       1.2685895     0.015553472
      5978.62       1.2517282     0.015813938
      5984.60       1.2401736     0.015793825
      5990.58       1.2299686     0.015460911
      5996.57       1.2175482     0.015724783
      6002.57       1.2152761     0.015413185
      6008.57       1.2202188     0.015666475
      6014.58       1.2129190     0.015641438
      6020.60       1.2064960     0.015326844
      6026.62       1.2007840     0.015585646
      6032.65       1.1859259     0.015567045
      6038.68       1.1842824     0.015247331
      6044.72       1.1764217     0.015511108
      6050.76       1.1747923     0.015210121
      6056.81       1.1697485     0.015173283
      6062.87       1.1574442     0.015442485
      6068.93       1.1520517     0.015135201
      6075.00       1.1485492     0.015104917
      6081.08       1.1407115     0.015106194
      6087.16       1.1375288     0.015068152
      6093.25       1.1431643     0.015336460
      6099.34       1.1371219     0.015046300
      6105.44       1.1326452     0.015020925
      6111.54       1.1261721     0.015030504
      6117.66       1.1281929     0.014992260
      6123.78       1.1335277     0.014976045
      6129.90       1.1383051     0.015001843
      6136.03       1.1524270     0.014990272
      6142.17       1.1550227     0.015052206
      6148.31       1.1523340     0.015040325
      6154.46       1.1547456     0.015045339
      6160.61       1.1501748     0.015093525
      6166.77       1.1551691     0.015081795
      6172.94       1.1550387     0.015114868
      6179.11       1.1631556     0.015078071
      6185.29       1.1591134     0.014798494
      6191.48       1.1595234     0.015027320
      6197.67       1.1622244     0.014981397
      6203.87       1.1522757     0.014956272
      6210.07       1.1445701     0.014906697
      6216.28       1.1342446     0.014632664
      6222.50       1.1201908     0.014871045
      6228.72       1.1158335     0.014589731
      6234.95       1.1196934     0.014831672
      6241.19       1.1137660     0.014797183
      6247.42       1.1008370     0.014537100
      6253.67       1.0919434     0.014770888
      6259.93       1.0630675     0.014508559
      6266.19       1.0381535     0.014754098
      6272.46       1.0179774     0.014489773
      6278.73       1.0050812     0.014486599
      6285.01       1.0013521     0.014721135
      6291.29      0.98894395     0.014475822
      6297.58      0.98241708     0.014720800
      6303.88      0.97675677     0.014471968
      6310.19      0.98036424     0.014727517
      6316.50      0.99593084     0.014476693
      6322.81       1.0068287     0.014483995
      6329.14       1.0306204     0.014499318
      6335.47       1.0470339     0.014507907
      6341.80       1.0721992     0.014532133
      6348.14       1.0949342     0.014533742
      6354.49       1.1195173     0.014799676
      6360.85       1.1259233     0.014557237
      6367.21       1.1315989     0.014571261
      6373.57       1.1348800     0.014572487
      6379.95       1.1370651     0.014577434
      6386.33       1.1314397     0.014575427
      6392.72       1.1255792     0.014574295
      6399.11       1.1152525     0.014576983
      6405.51       1.1055497     0.014574995
      6411.92       1.0866817     0.014324413
      6418.32       1.0759513     0.014585544
      6424.74       1.0822968     0.014339014
      6431.17       1.0813690     0.014593653
      6437.60       1.0817457     0.014346983
      6444.04       1.0861891     0.014598262
      6450.48       1.0830214     0.014356004
      6456.94       1.0775560     0.014608822
      6463.39       1.0678075     0.014368784
      6469.85       1.0617220     0.014615451
      6476.33       1.0465236     0.014380892
      6482.80       1.0364396     0.014365705
      6489.28       1.0275495     0.014403455
      6495.77       1.0175360     0.014388151
      6502.27       1.0064480     0.014660314
      6508.77      0.99679315     0.014414115
      6515.28      0.98185183     0.014686567
      6521.80      0.97705680     0.014441940
      6528.32      0.96800797     0.014714266
      6534.85      0.96422845     0.014471516
      6541.38      0.97381499     0.014745139
      6547.92      0.98216152     0.014503622
      6554.47      0.98777837     0.014555959
      6561.03      0.99060717     0.014536959
      6567.59      0.99181690     0.014590663
      6574.16      0.98907318     0.014571409
      6580.73      0.97887924     0.014626179
      6587.31      0.96520450     0.014606758
      6593.90      0.94205181     0.014662643
      6600.50      0.92266446     0.014643981
      6607.10      0.89452092     0.014700754
      6613.70      0.88472357     0.014682503
      6620.32      0.87946153     0.014470389
      6626.94      0.87992510     0.014721786
      6633.57      0.91120811     0.014510299
      6640.20      0.92395661     0.014761874
      6646.84      0.95838857     0.014551280
      6653.49      0.97564895     0.014802525
      6660.14      0.98686918     0.014594158
      6666.80       1.0056552     0.014847801
      6673.47       1.0106058     0.014675046
      6680.14       1.0236523     0.014953952
      6686.82       1.0169562     0.014789623
      6693.51       1.0046389     0.015011699
      6700.20      0.98743088     0.015114922
      6706.90      0.96117038     0.014996213
      6713.61      0.93217255     0.015424168
      6720.32      0.90546155     0.015380647
      6727.05      0.86451238     0.015911320
      6733.77      0.84602723     0.015889663
      6740.51      0.83641054     0.016448305
      6747.25      0.84224538     0.016359722
      6754.00      0.85653255     0.016825890
      6760.75      0.87482045     0.016596899
      6767.51      0.87917289     0.016582686
      6774.28      0.89624272     0.016516656
      6781.05      0.89580125     0.016331472
      6787.84      0.89475718     0.016219510
      6794.62      0.89823514     0.016014461
      6801.42      0.90263315     0.015945986
      6808.22      0.91189679     0.015869397
      6815.03      0.90841377     0.015828747
      6821.85      0.90402122     0.015702290
      6828.67      0.90913656     0.015416639
      6835.50      0.91003972     0.015640011
      6842.33      0.91353847     0.015619881
      6849.17      0.91357499     0.015610950
      6856.02      0.91375936     0.015616162
      6862.88      0.91007677     0.015628987
      6869.74      0.91037096     0.015655179
      6876.61      0.90380184     0.015432779
      6883.49      0.88920138     0.015708642
      6890.37      0.88379347     0.015473486
      6897.27      0.87126171     0.015748112
      6904.16      0.86947832     0.015763573
      6911.07      0.86265994     0.015525468
      6917.98      0.86190156     0.015787844
      6924.89      0.86517805     0.015550601
      6931.82      0.86038660     0.015821633
      6938.75      0.85657537     0.015579088
      6945.69      0.84101259     0.015625379
      6952.64      0.83601232     0.015614836
      6959.59      0.83551717     0.015662971
      6966.55      0.83213268     0.015942479
      6973.52      0.82982909     0.015727835
      6980.49      0.82612183     0.015810911
      6987.47      0.82633836     0.015812291
      6994.46      0.81878462     0.015906228
      7001.46      0.82174858     0.015933377
      7008.46      0.82676907     0.016076476
      7015.46      0.83558654     0.016291788
      7022.48      0.85943384     0.016378321
      7029.51      0.88867204     0.016666552
      7036.53      0.90797283     0.016783195
      7043.57      0.94189592     0.017036652
      7050.62      0.98073200     0.017240496
      7057.66      0.98818886     0.017275038
      7064.72      0.97774735     0.017381334
      7071.79      0.96986590     0.017147891
      7078.86      0.97079348     0.017413170
      7085.94      0.96535275     0.017425613
      7093.03      0.95770255     0.017393613
      7100.12      0.94075801     0.017435166
      7107.22      0.91735957     0.017209958
      7114.33      0.88957305     0.017531235
      7121.44      0.86955835     0.017621179
      7128.56      0.86432688     0.017357964
      7135.69      0.84594190     0.017644603
      7142.83      0.83084688     0.017359598
      7149.97      0.82288264     0.017311957
      7157.12      0.82363940     0.017540296
      7164.28      0.80425033     0.017242132
      7171.44      0.79945392     0.017469409
      7178.62      0.79163254     0.017166064
      7185.80      0.78670080     0.017089791
      7192.98      0.76623042     0.017287575
      7200.17      0.74451906     0.016992521
      7207.38      0.73279783     0.016949696
      7214.58      0.73267209     0.017178259
      7221.80      0.73014134     0.016906697
      7229.02      0.74064253     0.016905233
      7236.25      0.74892065     0.016911414
      7243.49      0.76362675     0.016914306
      7250.73      0.78892804     0.016925734
      7257.98      0.80334286     0.016929542
      7265.24      0.82714677     0.016933432
      7272.51      0.82394331     0.016953171
      7279.78      0.82587859     0.016962058
      7287.06      0.83123247     0.016982064
      7294.35      0.82997341     0.017016135
      7301.64      0.82576277     0.017028848
      7308.94      0.82564605     0.017055436
      7316.25      0.80755986     0.016819020
      7323.57      0.79451949     0.017111969
      7330.89      0.77444135     0.017145542
      7338.22      0.74761639     0.016910060
      7345.56      0.72497430     0.016962643
      7352.91      0.70493152     0.017243423
      7360.26      0.69517624     0.017007847
      7367.62      0.69955062     0.017062937
      7374.99      0.69345282     0.017358523
      7382.37      0.68852009     0.017208726
      7389.75      0.69030790     0.017462691
      7397.14      0.68987789     0.017924406
      7404.53      0.69309215     0.017578293
      7411.94      0.69314400     0.017692673
      7419.35      0.69688275     0.018199503
      7426.77      0.69829967     0.018495965
      7434.20      0.69902502     0.019500816
      7441.63      0.69551141     0.020837794
      7449.07      0.69173250     0.021556476
      7456.52      0.68279952     0.023217533
      7463.98      0.68237249     0.024905047
      7471.45      0.68145846     0.025327063
      7478.92      0.66083628     0.026737222
      7486.40      0.65524183     0.027008268
      7493.88      0.66551295     0.026366224
      7501.38      0.67040072     0.025737163
      7508.88      0.68548905     0.024237282
      7516.39      0.68067203     0.022664594
      7523.91      0.67700275     0.021424055
      7531.43      0.68613199     0.020791928
      7538.96      0.68961445     0.019960995
      7546.50      0.67921419     0.019159579
      7554.05      0.66314410     0.018627576
      7561.60      0.65747609     0.018706677
      7569.16      0.64813467     0.018521307
      7576.73      0.64077338     0.018097182
      7584.31      0.63318760     0.018245079
      7591.89      0.64002586     0.018158557
      7599.49      0.64542076     0.017861150
      7607.09      0.64381771     0.017838176
      7614.70      0.64901587     0.018087434
      7622.31      0.65456611     0.017849858
      7629.93      0.65652629     0.017862960
      7637.56      0.66576247     0.017886866
      7645.20      0.66713295     0.018160130
      7652.85      0.66989150     0.017931187
      7660.50      0.66272378     0.017956112
      7668.16      0.64581725     0.017986423
      7675.83      0.63738793     0.018022974
      7683.50      0.62655459     0.018032508
      7691.19      0.60046768     0.018057844
      7698.88      0.58516712     0.018091582
      7706.58      0.58165950     0.017857970
      7714.29      0.58030039     0.018149139
      7722.00      0.58948889     0.018185634
      7729.73      0.60510586     0.018231036
      7737.45      0.61346700     0.018001924
      7745.19      0.62007673     0.018300909
      7752.94      0.63486642     0.018327904
      7760.69      0.66413262     0.018352266
      7768.45      0.66675679     0.018100105
      7776.22      0.66580951     0.018129345
      7784.00      0.68124540     0.018405232
      7791.78      0.69222538     0.018421900
      7799.57      0.69705690     0.018164255
      7807.37      0.68845551     0.018189873
      7815.18      0.68364322     0.018222194
      7822.99      0.67683525     0.018494703
      7830.82      0.66606787     0.018517583
      7838.65      0.65556095     0.018265049
      7846.49      0.65035764     0.018293418
      7854.34      0.64618180     0.018320928
      7862.19      0.64047477     0.018580467
      7870.05      0.62166850     0.018313753
      7877.93      0.60294656     0.018328491
      7885.80      0.59089638     0.018347935
      7893.69      0.59105986     0.018367209
      7901.58      0.58650487     0.018344190
      7909.49      0.57920188     0.018359473
      7917.40      0.55910980     0.018387315
      7925.31      0.55098594     0.018432548
      7933.24      0.55213486     0.018501834
      7941.17      0.54375839     0.018299049
      7949.11      0.53786562     0.018597383
      7957.06      0.53414984     0.018725441
      7965.02      0.53670856     0.018896547
      7972.98      0.53378552     0.019099060
      7980.96      0.52980057     0.018964896
      7988.94      0.53191889     0.019186236
      7996.93      0.53805675     0.019626328
      8004.93      0.53993197     0.019815958
      8012.93      0.53437320     0.019893880
      8020.95      0.52716139     0.019616780
      8028.97      0.53450573     0.019631720
      8036.99      0.54817992     0.019623761
      8045.03      0.55595458     0.019853821
      8053.08      0.54842532     0.019814771
      8061.13      0.54837830     0.019512401
      8069.20      0.54361077     0.019433736
      8077.26      0.54734212     0.019366212
      8085.34      0.54167419     0.019320440
      8093.43      0.54043975     0.019272925
      8101.52      0.54408299     0.019482348
      8109.62      0.54298090     0.019172610
      8117.73      0.53746275     0.019092223
      8125.85      0.55079790     0.019008321
      8133.98      0.54727065     0.018927396
      8142.11      0.55002380     0.018883363
      8150.25      0.54670830     0.018867059
      8158.41      0.54467009     0.018560597
      8166.56      0.54559806     0.018725483
      8174.73      0.53216664     0.018600123
      8182.91      0.53653813     0.018492726
      8191.09      0.53722531     0.018391796
      8199.28      0.53680089     0.018307280
      8207.48      0.53345725     0.017993247
      8215.69      0.53534894     0.017914034
      8223.91      0.52207644     0.017839598
      8232.13      0.53068382     0.017777273
      8240.36      0.52689524     0.017967602
      8248.60      0.53592476     0.017913955
      8256.85      0.53869180     0.017860249
      8265.11      0.54028793     0.017576648
      8273.37      0.55017046     0.017530156
      8281.65      0.56521731     0.017489856
      8289.93      0.55176168     0.017452831
      8298.22      0.53985384     0.017418242
      8306.52      0.53218937     0.017386386
      8314.83      0.52425497     0.017354967
      8323.14      0.52096954     0.017548349
      8331.46      0.51474670     0.017277827
      8339.80      0.51693154     0.017243437
      8348.13      0.51213655     0.017207687
      8356.48      0.51002090     0.017171530
      8364.84      0.50036791     0.017133928
      8373.21      0.48813787     0.017093110
      8381.58      0.48473107     0.017050121
      8389.96      0.49396258     0.017005211
      8398.35      0.49227605     0.016958848
      8406.75      0.48988955     0.016690820
      8415.16      0.49092760     0.016640567
      8423.57      0.49578142     0.016589983
      8432.00      0.50523870     0.016537479
      8440.43      0.50428610     0.016702822
      8448.87      0.49700678     0.016650275
      8457.32      0.49270287     0.016599504
      8465.78      0.49476479     0.016548922
      8474.25      0.49615757     0.016497215
      8482.72      0.50416505     0.016444794
      8491.20      0.50511877     0.016191969
      8499.69      0.50703089     0.016134451
      8508.19      0.51364582     0.016074964
      8516.70      0.51443141     0.016013377
      8525.22      0.52958345     0.015949549
      8533.75      0.54926223     0.015883713
      8542.28      0.54574408     0.015816558
      8550.82      0.51656039     0.015357648
      8559.37      0.48981193     0.015290758
      8567.93      0.47067762     0.015047640
      8576.50      0.46173826     0.014795871
      8585.08      0.44894680     0.014729006
      8593.66      0.43651607     0.014502677
      8602.26      0.42305466     0.014435614
      8610.86      0.41547168     0.014049518
      8619.47      0.41236943     0.013981409
      8628.09      0.40147003     0.013911913
      8636.72      0.40261157     0.013547403
      8645.36      0.41442084     0.013477154
      8654.00      0.42578911     0.013288804
      8662.66      0.43950957     0.013067368
      8671.32      0.44600177     0.012999876
      8679.99      0.45673761     0.012827961
      8688.67      0.46252882     0.012629002
      8697.36      0.46779239     0.012466391
      8706.06      0.48495568     0.012280235
      8714.76      0.50300048     0.012228194
      8723.48      0.50329555     0.012079347
      8732.21      0.49381808     0.011925464
      8740.93      0.48647054     0.011799452
      8749.68      0.47609860     0.011781192
      8758.43      0.46673507     0.011699248
      8767.19      0.47228566     0.011611052
      8775.96      0.47261833     0.011642464
      8784.73      0.47323637     0.011474830
      8793.52      0.47847257     0.011475656
      8802.31      0.47536445     0.011355824
      8811.11      0.47508480     0.011223984
      8819.92      0.46778117     0.011179580
      8828.75      0.47313948     0.011027611
      8837.57      0.47412124     0.010884487
      8846.41      0.46774142     0.010702982
      8855.26      0.46827972     0.010553776
      8864.12      0.46658059     0.010465649
      8872.98      0.46415848     0.010257126
      8881.85      0.46753803     0.010099767
      8890.73      0.47600539     0.010212572
      8899.63      0.47615264     0.010343734
      8908.52      0.47710400     0.010435239
      8917.43      0.47728248     0.010618591
      8926.35      0.48110768     0.010888740
      8935.28      0.47842349     0.011209844
      8944.22      0.48010004     0.011630719
      8953.16      0.47867226     0.012020507
      8962.11      0.47458912     0.012699775
      8971.08      0.47835524     0.013589048
      8980.05      0.48053010     0.015206709
      8989.03      0.48190558     0.016874491
      8998.02      0.47791130     0.018974447
      9007.02      0.47998295     0.020886553
      9016.02      0.48909286     0.024047823
      9025.04      0.49794762     0.028060877
