# starting wavelength =        3782.5100
# ending wavelength =        5845.6534
# O2 telluric scale =        0
# O2 telluric shift =        0
# H2O telluric scale =        0
# H2O telluric shift =        0
      3782.54       1.3364614     0.024020218
      3786.33       1.3736504     0.020691858
      3790.11       1.4023062     0.017253927
      3793.90       1.4342649     0.015186765
      3797.70       1.4619170     0.013035939
      3801.50       1.4884753     0.011772861
      3805.30       1.5148070     0.010463844
      3809.10       1.5416763    0.0097054624
      3812.91       1.5688693    0.0090046281
      3816.73       1.5887592    0.0083980328
      3820.54       1.6126393    0.0080357525
      3824.36       1.6370337    0.0076667159
      3828.19       1.6580403    0.0074321991
      3832.02       1.6798769    0.0071965053
      3835.85       1.6995961    0.0070330449
      3839.68       1.7168537    0.0068729074
      3843.52       1.7310764    0.0067177793
      3847.37       1.7446165    0.0066087603
      3851.22       1.7555163    0.0065091658
      3855.07       1.7733192    0.0065068247
      3858.92       1.7795432    0.0065046369
      3862.78       1.7875815    0.0064801359
      3866.64       1.7984177    0.0064472457
      3870.51       1.8042192    0.0064450377
      3874.38       1.8151494    0.0064428473
      3878.26       1.8193050    0.0064411683
      3882.13       1.8163414    0.0064160303
      3886.02       1.8133805    0.0064147580
      3889.90       1.8110823    0.0064126165
      3893.79       1.8073538    0.0063801755
      3897.69       1.8018169    0.0063784120
      3901.59       1.7919485    0.0063770986
      3905.49       1.7840764    0.0063517680
      3909.39       1.7713383    0.0063512048
      3913.30       1.7662173    0.0063181379
      3917.22       1.7601524    0.0063169191
      3921.13       1.7471071    0.0063158786
      3925.06       1.7371695    0.0063149247
      3928.98       1.7274290    0.0063144277
      3932.91       1.7180352    0.0063137481
      3936.84       1.7112107    0.0062813970
      3940.78       1.7009043    0.0062555753
      3944.72       1.6886128    0.0062555757
      3948.67       1.6787072    0.0062548457
      3952.61       1.6718384    0.0062554696
      3956.57       1.6615613    0.0062220072
      3960.52       1.6534007    0.0062220368
      3964.48       1.6429246    0.0062224195
      3968.45       1.6374926    0.0062227508
      3972.42       1.6303590    0.0061901031
      3976.39       1.6261921    0.0061904662
      3980.37       1.6176062    0.0061914818
      3984.35       1.6126199    0.0061925257
      3988.33       1.6051050    0.0061936985
      3992.32       1.5976540    0.0061608429
      3996.31       1.5908626    0.0061343628
      4000.31       1.5828201    0.0061365766
      4004.31       1.5789552    0.0061376955
      4008.31       1.5802365    0.0061044627
      4012.32       1.5787941    0.0061066474
      4016.33       1.5726380    0.0061082494
      4020.35       1.5744605    0.0061113591
      4024.37       1.5744547    0.0060771983
      4028.40       1.5738037    0.0060796596
      4032.42       1.5749170    0.0060832235
      4036.46       1.5724703    0.0060857371
      4040.50       1.5712484    0.0060521428
      4044.54       1.5708399    0.0060557586
      4048.58       1.5690802    0.0060586984
      4052.63       1.5643635    0.0060934905
      4056.68       1.5630354    0.0060603434
      4060.74       1.5627063    0.0060643621
      4064.80       1.5632498    0.0060692327
      4068.86       1.5661949    0.0060745755
      4072.93       1.5624554    0.0060401589
      4077.01       1.5583487    0.0060456293
      4081.08       1.5548139    0.0060517446
      4085.17       1.5503311    0.0060172262
      4089.25       1.5444455    0.0060234358
      4093.34       1.5392242    0.0060303550
      4097.43       1.5388781    0.0060365447
      4101.53       1.5355957    0.0060023256
      4105.63       1.5313168    0.0060102465
      4109.74       1.5246045    0.0060170413
      4113.85       1.5206305    0.0060178620
      4117.96       1.5178077    0.0060263771
      4122.08       1.5139537    0.0060354985
      4126.20       1.5099023    0.0060006869
      4130.33       1.5050119    0.0060099258
      4134.46       1.5021612    0.0059393583
      4138.59       1.4964490    0.0059043485
      4142.73       1.4903584    0.0059127326
      4146.88       1.4895489    0.0058787800
      4151.02       1.4861171    0.0058093756
      4155.18       1.4763964    0.0057751505
      4159.33       1.4641780    0.0057413379
      4163.49       1.4505608    0.0057156479
      4167.65       1.4368935    0.0056812751
      4171.82       1.4222303    0.0056473018
      4175.99       1.4118966    0.0055802452
      4180.17       1.3985719    0.0055477122
      4184.35       1.3813834    0.0055555700
      4188.54       1.3706872    0.0055222817
      4192.72       1.3589659    0.0054561622
      4196.92       1.3467119    0.0054237343
      4201.11       1.3378404    0.0053917884
      4205.31       1.3258406    0.0053988003
      4209.52       1.3163096    0.0053339288
      4213.73       1.3125717    0.0053019871
      4217.94       1.3038400    0.0052703001
      4222.16       1.2966109    0.0052388636
      4226.38       1.2890063    0.0051764867
      4230.61       1.2836285    0.0051819987
      4234.84       1.2747808    0.0051507817
      4239.08       1.2683619    0.0051197954
      4243.32       1.2610171    0.0050890540
      4247.56       1.2535331    0.0050284282
      4251.81       1.2485004    0.0049975387
      4256.06       1.2421470    0.0049671053
      4260.32       1.2338446    0.0049370082
      4264.58       1.2253673    0.0049423205
      4268.84       1.2173704    0.0048839946
      4273.11       1.2068121    0.0048537707
      4277.38       1.2023091    0.0048237514
      4281.66       1.1966963    0.0047940989
      4285.94       1.1953942    0.0047647365
      4290.23       1.1998599    0.0047078636
      4294.52       1.2002174    0.0046790327
      4298.81       1.1947084    0.0046503641
      4303.11       1.1974796    0.0046549370
      4307.42       1.2005017    0.0046259864
      4311.72       1.2036224    0.0045973991
      4316.04       1.2086866    0.0045422903
      4320.35       1.2130728    0.0045142067
      4324.67       1.2189698    0.0044862994
      4329.00       1.2278915    0.0044585374
      4333.33       1.2346857    0.0044309906
      4337.66       1.2416229    0.0044036616
      4342.00       1.2453352    0.0043765961
      4346.34       1.2498100    0.0043246571
      4350.69       1.2542855    0.0042976904
      4355.04       1.2634542    0.0042708676
      4359.39       1.2749026    0.0042442579
      4363.75       1.2850025    0.0042178754
      4368.12       1.2968200    0.0041916645
      4372.48       1.3096812    0.0041656243
      4376.86       1.3170035    0.0041397057
      4381.23       1.3242766    0.0041139491
      4385.61       1.3351834    0.0040883169
      4390.00       1.3444421    0.0040399875
      4394.39       1.3558592    0.0040149118
      4398.79       1.3664069    0.0039900342
      4403.18       1.3779653    0.0039652952
      4407.59       1.3918927    0.0039406844
      4412.00       1.4043332    0.0039162095
      4416.41       1.4117175    0.0038920350
      4420.82       1.4223353    0.0038678922
      4425.25       1.4260211    0.0038439779
      4429.67       1.4313161    0.0038201913
      4434.10       1.4382001    0.0037965392
      4438.54       1.4462792    0.0037730264
      4442.97       1.4513919    0.0037498046
      4447.42       1.4564533    0.0037266325
      4451.86       1.4630699    0.0037036950
      4456.32       1.4684124    0.0036808899
      4460.77       1.4720419    0.0036582322
      4465.24       1.4752190    0.0036357228
      4469.70       1.4779554    0.0036134517
      4474.17       1.4823256    0.0035913053
      4478.65       1.4861324    0.0035694063
      4483.12       1.4869818    0.0035476591
      4487.61       1.4906836    0.0035260289
      4492.09       1.4949888    0.0035045659
      4496.59       1.5005679    0.0034596573
      4501.08       1.5083804    0.0034387146
      4505.58       1.5130617    0.0034180181
      4510.09       1.5128694    0.0033974762
      4514.60       1.5158649    0.0033770945
      4519.12       1.5184233    0.0033568854
      4523.63       1.5191600    0.0033369947
      4528.16       1.5181370    0.0033171632
      4532.69       1.5198970    0.0032976111
      4537.22       1.5227673    0.0032561245
      4541.76       1.5186775    0.0032368574
      4546.30       1.5149486    0.0032177827
      4550.85       1.5092762    0.0031990059
      4555.40       1.5048113    0.0031803613
      4559.95       1.4966045    0.0031619010
      4564.51       1.4877451    0.0031437032
      4569.08       1.4779675    0.0031050092
      4573.65       1.4721757    0.0030873401
      4578.22       1.4645820    0.0030700010
      4582.80       1.4567537    0.0030527738
      4587.38       1.4505494    0.0030519586
      4591.97       1.4400833    0.0030348037
      4596.56       1.4289435    0.0029979675
      4601.16       1.4184561    0.0029814179
      4605.76       1.4055420    0.0029651481
      4610.37       1.3927054    0.0029490112
      4614.98       1.3810460    0.0029331917
      4619.59       1.3708049    0.0028980283
      4624.21       1.3593320    0.0028824552
      4628.84       1.3466652    0.0028829086
      4633.47       1.3349031    0.0028678382
      4638.10       1.3224903    0.0028529292
      4642.74       1.3106640    0.0028196345
      4647.38       1.2970606    0.0028050178
      4652.03       1.2831370    0.0027906508
      4656.68       1.2698181    0.0027766152
      4661.34       1.2576712    0.0027604218
      4666.00       1.2453217    0.0027464368
      4670.67       1.2316940    0.0027328144
      4675.33       1.2194284    0.0027194775
      4680.01       1.2051989    0.0026892195
      4684.69       1.1915660    0.0026766520
      4689.38       1.1805320    0.0026785867
      4694.07       1.1705140    0.0026659671
      4698.76       1.1620232    0.0026369444
      4703.46       1.1563242    0.0026250875
      4708.16       1.1516038    0.0026135421
      4712.87       1.1503386    0.0026024057
      4717.58       1.1503260    0.0025883189
      4722.30       1.1488019    0.0025772634
      4727.03       1.1476193    0.0025666336
      4731.75       1.1493897    0.0025399763
      4736.48       1.1491062    0.0025438846
      4741.22       1.1498508    0.0025341504
      4745.96       1.1515690    0.0025086333
      4750.71       1.1515881    0.0024990004
      4755.46       1.1492058    0.0024900159
      4760.22       1.1434537    0.0024807410
      4764.97       1.1357953    0.0024734161
      4769.74       1.1292876    0.0024666094
      4774.51       1.1211138    0.0024453581
      4779.29       1.1147154    0.0024529988
      4784.07       1.1078750    0.0024472119
      4788.85       1.0983698    0.0024267110
      4793.64       1.0909281    0.0024337719
      4798.43       1.0838657    0.0024267059
      4803.23       1.0776653    0.0024052307
      4808.03       1.0726302    0.0023984435
      4812.84       1.0647098    0.0024041865
      4817.66       1.0603904    0.0023827874
      4822.48       1.0585094    0.0023762479
      4827.30       1.0547647    0.0023684774
      4832.12       1.0531684    0.0023621887
      4836.96       1.0509047    0.0023561057
      4841.79       1.0475387    0.0023484114
      4846.63       1.0422758    0.0023422405
      4851.48       1.0388314    0.0024003002
      4856.33       1.0346562    0.0024767487
      4861.19       1.0317896    0.0025793752
      4866.05       1.0275352    0.0027188342
      4870.92       1.0239246    0.0025935791
      4875.79       1.0198843    0.0024610336
      4880.66       1.0162779    0.0025459931
      4885.55       1.0141645    0.0026552316
      4890.43       1.0133992    0.0028005545
      4895.32       1.0139701    0.0029170390
      4900.22       1.0141832    0.0030740453
      4905.12       1.0144425    0.0031647777
      4910.02       1.0215396    0.0030914962
      4914.94       1.0287363    0.0030035186
      4919.85       1.0329475    0.0028433577
      4924.77       1.0373275    0.0027044116
      4929.70       1.0386507    0.0025667413
      4934.62       1.0392794    0.0024539961
      4939.56       1.0414633    0.0024294351
      4944.50       1.0465572    0.0028030377
      4949.44       1.0456500    0.0025869535
      4954.39       1.0511912    0.0024614427
      4959.35       1.0532837    0.0023652767
      4964.31       1.0557516    0.0022950555
      4969.27       1.0549383    0.0022416831
      4974.24       1.0571894    0.0022560026
      4979.22       1.0573308    0.0022453853
      4984.20       1.0597937    0.0022603155
      4989.18       1.0609142    0.0022502009
      4994.17       1.0619772    0.0022524457
      4999.16       1.0644493    0.0022560759
      5004.16       1.0651059    0.0022472052
      5009.17       1.0680837    0.0022632873
      5014.18       1.0701424    0.0022549502
      5019.19       1.0695270    0.0022715557
      5024.21       1.0686011    0.0022637086
      5029.23       1.0695296    0.0022809697
      5034.26       1.0719933    0.0022738470
      5039.30       1.0734400    0.0022800688
      5044.34       1.0732704    0.0022852502
      5049.39       1.0784855    0.0022927461
      5054.43       1.0798021    0.0022995970
      5059.49       1.0801909    0.0023073484
      5064.55       1.0789365    0.0023015174
      5069.61       1.0799847    0.0023224875
      5074.68       1.0770955    0.0023197610
      5079.76       1.0783430    0.0023438661
      5084.84       1.0791556    0.0023441307
      5089.92       1.0806874    0.0023600713
      5095.01       1.0823005    0.0023725703
      5100.11       1.0830403    0.0023887188
      5105.21       1.0861167    0.0024042783
      5110.31       1.0913181    0.0024148433
      5115.42       1.0949893    0.0024275156
      5120.54       1.1020169    0.0024236218
      5125.66       1.1064245    0.0024446616
      5130.79       1.1133628    0.0024386250
      5135.92       1.1212742    0.0024460307
      5141.05       1.1300282    0.0024664075
      5146.20       1.1392932    0.0024622586
      5151.34       1.1468207    0.0024740524
      5156.49       1.1514474    0.0024829356
      5161.65       1.1550540    0.0024939829
      5166.81       1.1574473    0.0025068188
      5171.98       1.1608397    0.0025173782
      5177.15       1.1645653    0.0025310929
      5182.33       1.1675887    0.0025303418
      5187.51       1.1691185    0.0025573781
      5192.70       1.1698720    0.0025728662
      5197.89       1.1723277    0.0025735348
      5203.09       1.1741443    0.0025905242
      5208.29       1.1796580    0.0026198808
      5213.50       1.1808740    0.0026216938
      5218.72       1.1802750    0.0026401723
      5223.93       1.1786386    0.0026431536
      5229.16       1.1780902    0.0026745453
      5234.39       1.1744282    0.0026952309
      5239.62       1.1695062    0.0027004914
      5244.86       1.1680603    0.0027231608
      5250.11       1.1618170    0.0027583523
      5255.36       1.1554492    0.0027816932
      5260.61       1.1472822    0.0027877400
      5265.87       1.1379079    0.0028111240
      5271.14       1.1306565    0.0028345989
      5276.41       1.1220383    0.0028530993
      5281.69       1.1135228    0.0028757085
      5286.97       1.1084023    0.0028981091
      5292.26       1.1026988    0.0029026997
      5297.55       1.0981350    0.0029255012
      5302.85       1.0914717    0.0029621764
      5308.15       1.0890447    0.0029865304
      5313.46       1.0849099    0.0029930324
      5318.77       1.0806953    0.0030181181
      5324.09       1.0779038    0.0030430767
      5329.42       1.0782918    0.0026558868
      5334.75       1.0765094    0.0026652585
      5340.08       1.0751078    0.0026955650
      5345.42       1.0729509    0.0027180115
      5350.77       1.0705663    0.0027408697
      5356.12       1.0679876    0.0027511511
      5361.48       1.0682065    0.0027752003
      5366.83       1.0675773    0.0027995654
      5372.20       1.0644164    0.0028322556
      5377.58       1.0618065    0.0028909076
      5382.95       1.0565863    0.0028774959
      5388.34       1.0536554    0.0028992130
      5393.72       1.0492785    0.0029215676
      5399.12       1.0452866    0.0029555541
      5404.52       1.0423011    0.0029852458
      5409.92       1.0371351    0.0030327032
      5415.33       1.0282202    0.0030837994
      5420.75       1.0210275    0.0031367623
      5426.17       1.0166465    0.0031898579
      5431.60       1.0115829    0.0032229985
      5437.03       1.0052233    0.0032712359
      5442.47      0.99907885    0.0033150237
      5447.91      0.99249968    0.0033534634
      5453.36      0.98385048    0.0033822870
      5458.81      0.97709713    0.0034044569
      5464.27      0.96955771    0.0034020292
      5469.73      0.96339817    0.0034132183
      5475.20      0.95801713    0.0034204922
      5480.68      0.95246478    0.0034257333
      5486.16      0.94683712    0.0034314532
      5491.65      0.94087847    0.0034405332
      5497.14      0.93626131    0.0034569126
      5502.64      0.93281557    0.0034868368
      5508.14      0.92948348    0.0035554206
      5513.65      0.92523119    0.0036619889
      5519.16      0.91965355    0.0037977438
      5524.68      0.91819983    0.0037186685
      5530.20      0.91793660    0.0036859427
      5535.73      0.91659596    0.0037082395
      5541.27      0.91426772    0.0037647946
      5546.81      0.90657163    0.0038473019
      5552.36      0.89761837    0.0039507184
      5557.91      0.89165879    0.0040710174
      5563.47      0.88855333    0.0042040737
      5569.04      0.88370303    0.0043451145
      5574.60      0.87739309    0.0044830212
      5580.18      0.86570345    0.0046168202
      5585.76      0.85414531    0.0047363538
      5591.35      0.84325136    0.0048149796
      5596.94      0.83362506    0.0048618830
      5602.53      0.82255418    0.0048803439
      5608.14      0.81720960    0.0048711422
      5613.75      0.81160648    0.0048372849
      5619.36      0.80919397    0.0047852635
      5624.98      0.80699548    0.0047051084
      5630.60      0.80298081    0.0046460537
      5636.23      0.80228982    0.0045983860
      5641.87      0.80284872    0.0045772743
      5647.51      0.80294409    0.0046155304
      5653.16      0.80554721    0.0048111738
      5658.82      0.80805074    0.0049176139
      5664.47      0.80495369    0.0048115299
      5670.14      0.80200498    0.0047357040
      5675.81      0.79967667    0.0047734394
      5681.48      0.79730489    0.0048104266
      5687.17      0.79101715    0.0048473619
      5692.85      0.78331501    0.0048727531
      5698.55      0.77841514    0.0049143970
      5704.25      0.77743467    0.0049585740
      5709.95      0.77634680    0.0050041687
      5715.66      0.77603213    0.0050500842
      5721.38      0.77232286    0.0050808948
      5727.10      0.76474291    0.0051247900
      5732.83      0.76602315    0.0051683233
      5738.56      0.76589503    0.0052121023
      5744.30      0.76533638    0.0052445912
      5750.04      0.76229252    0.0053632907
      5755.79      0.76119669    0.0054028444
      5761.55      0.75820253    0.0054359578
      5767.31      0.75964572    0.0054662644
      5773.08      0.75486712    0.0055233315
      5778.85      0.75344192    0.0055898344
      5784.63      0.75228124    0.0056648973
      5790.41      0.74707602    0.0057642062
      5796.21      0.73922543    0.0058645717
      5802.00      0.73151356    0.0059772784
      5807.81      0.72743130    0.0060889399
      5813.61      0.72487219    0.0062081509
      5819.43      0.72214163    0.0063245709
      5825.25      0.72163719    0.0064366503
      5831.07      0.71960873    0.0065649955
      5836.90      0.71478045    0.0066556434
      5842.74      0.71442056    0.0067350562
