# starting wavelength =        3398.5000
# ending wavelength =        9128.7500
# O2 telluric scale =        0
# O2 telluric shift =        0
# H2O telluric scale =        0
# H2O telluric shift =        0
      3398.88       7.0227533      0.23442407
      3402.28       6.9898717      0.23069278
      3405.68       7.0036926      0.22709527
      3409.09       6.9900357      0.22715414
      3412.49       7.0060580      0.22338764
      3415.91       6.9765233      0.21974684
      3419.32       6.9065095      0.21623883
      3422.74       6.8655396      0.21285835
      3426.17       6.8506481      0.21281434
      3429.59       6.8301700      0.20928044
      3433.02       6.7521786      0.20587356
      3436.45       6.7151851      0.20258711
      3439.89       6.7875793      0.22303081
      3443.33       6.8049776      0.22685604
      3446.78       6.7795737      0.22303815
      3450.22       6.7494088      0.21939779
      3453.67       6.7740066      0.21592726
      3457.13       6.8364907      0.20884887
      3460.58       6.8447547      0.21234733
      3464.04       6.8464189      0.20876953
      3467.51       6.7498947      0.20535532
      3470.98       6.6772624      0.20208959
      3474.45       6.6522058      0.19545114
      3477.92       6.6668395      0.19867998
      3481.40       6.6853683      0.19531747
      3484.88       6.7780716      0.19210689
      3488.37       6.7758538      0.18572443
      3491.86       6.7610377      0.18282834
      3495.35       6.7542559      0.18584577
      3498.84       6.6894429      0.18268866
      3502.34       6.6454681      0.17967050
      3505.84       6.6977447      0.17368813
      3509.35       6.7958511      0.17096029
      3512.86       6.8618878      0.16834752
      3516.37       6.8731220      0.17085109
      3519.89       6.9298718      0.16799850
      3523.41       7.0022853      0.16238475
      3526.93       7.1134030      0.15981225
      3530.46       7.1972217      0.15734698
      3533.99       7.2471673      0.15974742
      3537.53       7.3525940      0.15707200
      3541.06       7.4180494      0.15181394
      3544.60       7.5103855      0.14939338
      3548.15       7.5846847      0.14707092
      3551.70       7.6329326      0.14484618
      3555.25       7.6407131      0.14689642
      3558.80       7.6507871      0.14196039
      3562.36       7.6335596      0.13967492
      3565.92       7.5499961      0.13748248
      3569.49       7.4766446      0.13538070
      3573.06       7.3911657      0.13336725
      3576.64       7.3471399      0.13278024
      3580.21       7.2030198      0.13063430
      3583.79       7.0984836      0.12857364
      3587.38       7.0029423      0.12659534
      3590.96       6.9234659      0.12469778
      3594.55       6.8194251      0.12288018
      3598.15       6.7435817      0.12226830
      3601.75       6.6181745      0.12033045
      3605.35       6.5092990      0.11846390
      3608.96       6.4638673      0.11667818
      3612.56       6.4124378      0.11496482
      3616.18       6.3226640      0.11130640
      3619.79       6.2630301      0.11272412
      3623.41       6.1929552      0.11097626
      3627.04       6.1419943      0.10929846
      3630.66       6.0914975      0.10768891
      3634.29       6.0857827      0.10614669
      3637.93       6.1273807      0.10278840
      3641.57       6.1401850      0.10119987
      3645.21       6.1481724      0.10254189
      3648.86       6.1419893      0.10102785
      3652.50       6.1516466     0.099581317
      3656.16       6.2103673     0.098194103
      3659.81       6.2403064     0.095137441
      3663.47       6.2786387     0.093711914
      3667.14       6.2928736     0.094968018
      3670.80       6.3602921     0.093614048
      3674.48       6.3743613     0.092316958
      3678.15       6.3197728     0.091075484
      3681.83       6.2544283     0.088320662
      3685.51       6.2363346     0.087045104
      3689.20       6.2000440     0.085817983
      3692.88       6.1658262     0.087012666
      3696.58       6.1031290     0.085854833
      3700.27       6.0234968     0.084746508
      3703.98       5.9501570     0.082285345
      3707.68       5.8543397     0.081148761
      3711.39       5.7797218     0.080060200
      3715.10       5.7314453     0.079018083
      3718.81       5.6845716     0.078021048
      3722.53       5.6257596     0.079174381
      3726.26       5.6099423     0.076999675
      3729.98       5.5869661     0.075990969
      3733.71       5.5593695     0.075023270
      3737.45       5.5135910     0.074100801
      3741.18       5.5031144     0.073221755
      3744.93       5.5196244     0.072381906
      3748.67       5.4942232     0.072414972
      3752.42       5.5221049     0.071523924
      3756.17       5.5019713     0.070673962
      3759.93       5.4769111     0.069863380
      3763.69       5.4574575     0.069090971
      3767.45       5.3916208     0.068355652
      3771.22       5.3355160     0.067656508
      3774.99       5.2940081     0.065790493
      3778.77       5.2651814     0.066968801
      3782.54       5.2304801     0.066258535
      3786.33       5.1485989     0.065585549
      3790.11       5.0744462     0.066594325
      3793.90       5.0032295     0.064688506
      3797.70       4.9669473     0.063771105
      3801.50       4.9378368     0.062205212
      3805.30       4.8993142     0.061904909
      3809.10       4.8697094     0.061781120
      3812.91       4.8397573     0.063189067
      3816.73       4.8105729     0.064780878
      3820.54       4.7834259     0.066439952
      3824.36       4.7626936     0.063491280
      3828.19       4.7701238     0.062871837
      3832.02       4.7545836     0.061939908
      3835.85       4.7359729     0.062220680
      3839.68       4.7417728     0.062658597
      3843.52       4.7667018     0.063742735
      3847.37       4.7822626     0.065677565
      3851.22       4.8052980     0.065991167
      3855.07       4.8321355     0.065992463
      3858.92       4.8457061     0.064294223
      3862.78       4.8751015     0.063787997
      3866.64       4.8962374     0.062208387
      3870.51       4.9015115     0.061263232
      3874.38       4.8984810     0.060278713
      3878.26       4.9088365     0.059375049
      3882.13       4.9174213     0.058709448
      3886.02       4.9377620     0.059824744
      3889.90       4.9454357     0.057552755
      3893.79       4.9483895     0.055430439
      3897.69       4.9657850     0.054616465
      3901.59       4.9892444     0.054067678
      3905.49       4.9934127     0.053937885
      3909.39       5.0012292     0.055261309
      3913.30       5.0166882     0.058807495
      3917.22       5.0346830     0.054802014
      3921.13       5.0613577     0.053402298
      3925.06       5.0780796     0.052456032
      3928.98       5.0758298     0.053843814
      3932.91       5.0645286     0.054344760
      3936.84       5.0420864     0.055053931
      3940.78       5.0296444     0.055862963
      3944.72       5.0107087     0.056683553
      3948.67       4.9815041     0.057430512
      3952.61       4.9460063     0.058025262
      3956.57       4.9028761     0.058402308
      3960.52       4.8421124     0.058613744
      3964.48       4.7834801     0.056848808
      3968.45       4.7221490     0.056511510
      3972.42       4.6336820     0.055986389
      3976.39       4.5441136     0.055318884
      3980.37       4.4884150     0.055538307
      3984.35       4.4071761     0.054709957
      3988.33       4.3426602     0.053932827
      3992.32       4.2853788     0.053292504
      3996.31       4.2437295     0.052892644
      4000.31       4.2014252     0.052894489
      4004.31       4.1582060     0.051466552
      4008.31       4.1175992     0.052046339
      4012.32       4.1048010     0.054066343
      4016.33       4.1004301     0.052878352
      4020.35       4.0944736     0.051659050
      4024.37       4.1012015     0.051698129
      4028.40       4.1000126     0.051742389
      4032.42       4.0953667     0.051790895
      4036.46       4.0738217     0.052807643
      4040.50       4.0629166     0.052864577
      4044.54       4.0687705     0.054135701
      4048.58       4.0875762     0.055258917
      4052.63       4.0914272     0.052702230
      4056.68       4.1215270     0.052174154
      4060.74       4.1431836     0.052283302
      4064.80       4.1550136     0.052744229
      4068.86       4.1721748     0.053414374
      4072.93       4.1878795     0.054201534
      4077.01       4.1854135     0.055030879
      4081.08       4.1930680     0.055830908
      4085.17       4.2154727     0.056537708
      4089.25       4.2327950     0.057089950
      4093.34       4.2291143     0.057438942
      4097.43       4.2189930     0.057816025
      4101.53       4.1955785     0.057578041
      4105.63       4.1797866     0.055642940
      4109.74       4.1679108     0.055165519
      4113.85       4.1676388     0.054573950
      4117.96       4.1611019     0.055253657
      4122.08       4.1527239     0.054458381
      4126.20       4.1297048     0.053693296
      4130.33       4.0941417     0.053035587
      4134.46       4.0582150     0.052581995
      4138.59       4.0244249     0.052477733
      4142.73       3.9851658     0.053017414
      4146.88       3.9415206     0.055004343
      4151.02       3.9120047     0.053734573
      4155.18       3.8855240     0.052438993
      4159.33       3.8687805     0.052404635
      4163.49       3.8477008     0.052365236
      4167.65       3.8152014     0.052319238
      4171.82       3.7780954     0.051193956
      4175.99       3.7398712     0.051142591
      4180.17       3.7095122     0.051087275
      4184.35       3.6762271     0.051027524
      4188.54       3.6428989     0.050963433
      4192.72       3.6000597     0.050892894
      4196.92       3.5573392     0.050817101
      4201.11       3.5151575     0.050736225
      4205.31       3.4818024     0.050650382
      4209.52       3.4523203     0.050558112
      4213.73       3.4216376     0.050461546
      4217.94       3.3872709     0.050360748
      4222.16       3.3572422     0.050255532
      4226.38       3.3296335     0.050145960
      4230.61       3.3007398     0.050032132
      4234.84       3.2718672     0.049911938
      4239.08       3.2394872     0.049786961
      4243.32       3.2155437     0.049656890
      4247.56       3.1974917     0.049521902
      4251.81       3.1790563     0.049380968
      4256.06       3.1629032     0.049235789
      4260.32       3.1402327     0.049086599
      4264.58       3.1140732     0.047986461
      4268.84       3.0944265     0.047826365
      4273.11       3.0629608     0.047662398
      4277.38       3.0383289     0.048423737
      4281.66       3.0142737     0.049583894
      4285.94       2.9842659     0.047687786
      4290.23       2.9725100     0.046977839
      4294.52       2.9556077     0.046806695
      4298.81       2.9369816     0.046928714
      4303.11       2.9133951     0.047220013
      4307.42       2.8972018     0.047602541
      4311.72       2.8943569     0.048018418
      4316.04       2.8977476     0.048415365
      4320.35       2.8918959     0.048748543
      4324.67       2.8765721     0.048976553
      4329.00       2.8727187     0.049067966
      4333.33       2.8781260     0.049001410
      4337.66       2.8879156     0.048793230
      4342.00       2.9021689     0.048290776
      4346.34       2.9128007     0.047656182
      4350.69       2.9151768     0.046923371
      4355.04       2.9184978     0.046129281
      4359.39       2.9158691     0.045312635
      4363.75       2.9114623     0.044512815
      4368.12       2.9067356     0.043768362
      4372.48       2.9056668     0.043123024
      4376.86       2.9047618     0.042631424
      4381.23       2.8990303     0.042376433
      4385.61       2.8885797     0.042515495
      4390.00       2.8839316     0.043412978
      4394.39       2.8791047     0.042337738
      4398.79       2.8777515     0.041258892
      4403.18       2.8809326     0.040990761
      4407.59       2.8709822     0.040720340
      4412.00       2.8560965     0.040446479
      4416.41       2.8653389     0.045628988
      4420.82       2.8551688     0.045313042
      4425.25       2.8452269     0.044994702
      4429.67       2.8451000     0.044674056
      4434.10       2.8556923     0.044351340
      4438.54       2.8755241     0.044024735
      4442.97       2.8838164     0.043695371
      4447.42       2.8777641     0.043364474
      4451.86       2.8631087     0.043031890
      4456.32       2.8563820     0.042697447
      4460.77       2.8535025     0.042361320
      4465.24       2.8499416     0.042023425
      4469.70       2.8529104     0.041683907
      4474.17       2.8555836     0.041343034
      4478.65       2.8494033     0.041000923
      4483.12       2.8494160     0.040655597
      4487.61       2.8549168     0.040308765
      4492.09       2.8639962     0.040770449
      4496.59       2.8804744     0.040395317
      4501.08       2.8926325     0.040019362
      4505.58       2.8934600     0.039642379
      4510.09       2.8930110     0.039264572
      4514.60       2.9019193     0.038886167
      4519.12       2.9107849     0.038507463
      4523.63       2.9086731     0.038128347
      4528.16       2.8762463     0.036726360
      4532.69       2.8522824     0.036352917
      4537.22       2.8312152     0.035979488
      4541.76       2.8118189     0.035605856
      4546.30       2.7898883     0.035232185
      4550.85       2.7693111     0.034858522
      4555.40       2.7609463     0.034484905
      4559.95       2.7518809     0.034111522
      4564.51       2.7452166     0.033738532
      4569.08       2.7456272     0.033364506
      4573.65       2.7428987     0.032990647
      4578.22       2.7417571     0.032617830
      4582.80       2.7408185     0.032245888
      4587.38       2.7330889     0.031874732
      4591.97       2.7258419     0.031504430
      4596.56       2.7246952     0.031135084
      4601.16       2.7243101     0.030766754
      4605.76       2.7067562     0.029445204
      4610.37       2.6937010     0.029066532
      4614.98       2.6790012     0.028690181
      4619.59       2.6689351     0.028871280
      4624.21       2.6638373     0.028487068
      4628.84       2.6534528     0.028104574
      4633.47       2.6422523     0.027723893
      4638.10       2.6306499     0.027345017
      4642.74       2.6173587     0.026968012
      4647.38       2.6003214     0.026592982
      4652.03       2.5819213     0.026220123
      4656.68       2.5689873     0.025849443
      4661.34       2.5568576     0.025478676
      4666.00       2.5307436     0.024333859
      4670.67       2.5104231     0.023957406
      4675.33       2.4922190     0.023583687
      4680.01       2.4739779     0.023212511
      4684.69       2.4500918     0.022844004
      4689.38       2.4161275     0.022478200
      4694.07       2.3864423     0.022115101
      4698.76       2.3680564     0.022148631
      4703.46       2.3495085     0.021780649
      4708.16       2.3272469     0.021416335
      4712.87       2.3046173     0.021055515
      4717.58       2.2802704     0.020063006
      4722.30       2.2521404     0.019697819
      4727.03       2.2237841     0.019336202
      4731.75       2.1963299     0.018978164
      4736.48       2.1745598     0.018623775
      4741.22       2.1570626     0.018272992
      4745.96       2.1445713     0.017924833
      4750.71       2.1339877     0.017581191
      4755.46       2.1173545     0.017240989
      4760.22       2.1078409     0.017184955
      4764.97       2.0984533     0.016322641
      4769.74       2.0880463     0.015976636
      4774.51       2.0799221     0.015635081
      4779.29       2.0703647     0.015297961
      4784.07       2.0677866     0.014965284
      4788.85       2.0636963     0.014636279
      4793.64       2.0486711     0.014312259
      4798.43       2.0376880     0.013992512
      4803.23       2.0393335     0.013677326
      4808.03       2.0190336     0.012934516
      4812.84       2.0080245     0.012820409
      4817.66       2.0093022     0.012504140
      4822.48       2.0176005     0.012192993
      4827.30       2.0222409     0.011887016
      4832.12       2.0221664     0.011585336
      4836.96       2.0253764     0.011289206
      4841.79       2.0280628     0.010998024
      4846.63       2.0261491     0.010711891
      4851.48       2.0033635     0.010072903
      4856.33       1.9943105    0.0098039207
      4861.19       1.9918398    0.0096501575
      4866.05       1.9882540    0.0093732721
      4870.92       1.9835999    0.0091020040
      4875.79       1.9809464    0.0088356951
      4880.66       1.9762352    0.0085753555
      4885.55       1.9682377    0.0080198018
      4890.43       1.9703513    0.0077775223
      4895.32       1.9817027    0.0075405655
      4900.22       1.9800791    0.0073101665
      4905.12       1.9673039    0.0070959789
      4910.02       1.9886970    0.0069325394
      4914.94       2.0029364    0.0067155391
      4919.85       1.9939186    0.0065059886
      4924.77       1.9840826    0.0061007803
      4929.70       1.9725100    0.0059323486
      4934.62       1.9535624    0.0057824897
      4939.56       1.9341082    0.0056527540
      4944.50       1.9232785    0.0056987024
      4949.44       1.9123556    0.0058523645
      4954.39       1.9066589    0.0060969241
      4959.35       1.8995159    0.0062374222
      4964.31       1.8956988    0.0069154403
      4969.27       1.9012721    0.0058550687
      4974.24       1.8991115    0.0059876077
      4979.22       1.8970329    0.0062527482
      4984.20       1.8991186    0.0065905615
      4989.18       1.9130797    0.0068331547
      4994.17       1.9087918    0.0071823195
      4999.16       1.9147855    0.0074550298
      5004.16       1.9426069    0.0074850375
      5009.17       1.9401506    0.0072110282
      5014.18       1.9290471    0.0068482770
      5019.19       1.9305468    0.0064481438
      5024.21       1.9372005    0.0061798850
      5029.23       1.9460259    0.0058778528
      5034.26       1.9527225    0.0057043945
      5039.30       1.9730334    0.0066748665
      5044.34       1.9876543    0.0063329549
      5049.39       1.9808563    0.0058568828
      5054.43       1.9791341    0.0054970102
      5059.49       1.9792906    0.0053399919
      5064.55       1.9795298    0.0051847436
      5069.61       1.9826841    0.0051846794
      5074.68       1.9804853    0.0051860506
      5079.76       1.9769354    0.0050744187
      5084.84       1.9715289    0.0050702803
      5089.92       1.9673058    0.0051861666
      5095.01       1.9661799    0.0051846859
      5100.11       1.9672076    0.0051848518
      5105.21       1.9691250    0.0051864083
      5110.31       1.9671568    0.0050739566
      5115.42       1.9680211    0.0050698542
      5120.54       1.9804437    0.0051859595
      5125.66       1.9882351    0.0051847415
      5130.79       1.9956916    0.0051851626
      5135.92       2.0034395    0.0050772353
      5141.05       2.0047225    0.0050719022
      5146.20       1.9997857    0.0050682988
      5151.34       1.9976215    0.0051850667
      5156.49       2.0025440    0.0051846023
      5161.65       2.0148773    0.0050804119
      5166.81       2.0182795    0.0050742076
      5171.98       2.0195867    0.0050697239
      5177.15       2.0191065    0.0050668528
      5182.33       2.0150573    0.0051844995
      5187.51       2.0045437    0.0050827978
      5192.70       1.9957009    0.0050758560
      5197.89       1.9859674    0.0050707796
      5203.09       1.9702961    0.0050675382
      5208.29       1.9517166    0.0050661415
      5213.50       1.9320086    0.0050838704
      5218.72       1.9181705    0.0050764217
      5223.93       1.9036452    0.0050708240
      5229.16       1.8899390    0.0050672982
      5234.39       1.8731159    0.0050658381
      5239.62       1.8503812    0.0050836116
      5244.86       1.8312254    0.0050760477
      5250.11       1.8160245    0.0050706478
      5255.36       1.8085216    0.0050806245
      5260.61       1.8009286    0.0049728619
      5265.87       1.7860721    0.0050836687
      5271.14       1.7699764    0.0050766547
      5276.41       1.7524176    0.0050721569
      5281.69       1.7345914    0.0050701062
      5286.97       1.7179269    0.0049781708
      5292.26       1.6996561    0.0050912674
      5297.55       1.6781500    0.0050882825
      5302.85       1.6554348    0.0050876123
      5308.15       1.6389658    0.0049961983
      5313.46       1.6254838    0.0050007757
      5318.77       1.6120473    0.0051120438
      5324.09       1.6040742    0.0051083743
      5329.42       1.6009033    0.0050109723
      5334.75       1.5958798    0.0050108814
      5340.08       1.5916345    0.0050123838
      5345.42       1.5879150    0.0051120011
      5350.77       1.5881006    0.0051064247
      5356.12       1.5954901    0.0050081198
      5361.48       1.5961045    0.0050079550
      5366.83       1.5978894    0.0051110873
      5372.20       1.5994800    0.0051039984
      5377.58       1.5970158    0.0050072673
      5382.95       1.5964387    0.0050086407
      5388.34       1.5921412    0.0050124508
      5393.72       1.5809989    0.0051076392
      5399.12       1.5723425    0.0050204149
      5404.52       1.5644169    0.0050277154
      5409.92       1.5594146    0.0050435686
      5415.33       1.5519395    0.0051714537
      5420.75       1.5473548    0.0051311473
      5426.17       1.5437307    0.0051766943
      5431.60       1.5394623    0.0052357140
      5437.03       1.5302542    0.0053850970
      5442.47       1.5161339    0.0054671737
      5447.91       1.5023227    0.0055604669
      5453.36       1.4931841    0.0056636476
      5458.81       1.4831214    0.0057104141
      5464.27       1.4681654    0.0059890116
      5469.73       1.4549704    0.0060990099
      5475.20       1.4415902    0.0062136416
      5480.68       1.4292697    0.0062543243
      5486.16       1.4185961    0.0065669699
      5491.65       1.4118128    0.0066865415
      5497.14       1.4050334    0.0068106899
      5502.64       1.3986605    0.0068439461
      5508.14       1.3932663    0.0071718446
      5513.65       1.3907250    0.0072934002
      5519.16       1.3920351    0.0073270480
      5524.68       1.3975026    0.0074380087
      5530.20       1.4062755    0.0077801590
      5535.73       1.4059014    0.0079034903
      5541.27       1.4012963    0.0079215588
      5546.81       1.3984237    0.0082703676
      5552.36       1.3996436    0.0083898093
      5557.91       1.3945823    0.0084066601
      5563.47       1.3859216    0.0085138121
      5569.04       1.3788968    0.0088747870
      5574.60       1.3727720    0.0089950065
      5580.18       1.3676981    0.0089918865
      5585.76       1.3627081    0.0090995005
      5591.35       1.3557312    0.0094732227
      5596.94       1.3523305    0.0094668822
      5602.53       1.3445149    0.0095686730
      5608.14       1.3373998    0.0096773043
      5613.75       1.3354674    0.0099408501
      5619.36       1.3367947     0.010035696
      5624.98       1.3357593     0.010137139
      5630.60       1.3403056     0.010529746
      5636.23       1.3371768     0.010508048
      5641.87       1.3350821     0.010615581
      5647.51       1.3314326     0.010733557
      5653.16       1.3238473     0.011017199
      5658.82       1.3165096     0.011125621
      5664.47       1.3077427     0.011240931
      5670.14       1.3008869     0.011519081
      5675.81       1.2973606     0.011610293
      5681.48       1.2915445     0.011703569
      5687.17       1.2852225     0.011635138
      5692.85       1.2777762     0.012000172
      5698.55       1.2736942     0.012064503
      5704.25       1.2674163     0.011962021
      5709.95       1.2611445     0.012315176
      5715.66       1.2580082     0.012377115
      5721.38       1.2580413     0.012271761
      5727.10       1.2523333     0.012639733
      5732.83       1.2479482     0.012691078
      5738.56       1.2435799     0.012568143
      5744.30       1.2376324     0.012640327
      5750.04       1.2379928     0.012988906
      5755.79       1.2329164     0.012853110
      5761.55       1.2310862     0.012920182
      5767.31       1.2359473     0.013270156
      5773.08       1.2379454     0.013121753
      5778.85       1.2369682     0.013183449
      5784.63       1.2347779     0.013532103
      5790.41       1.2347477     0.013371617
      5796.21       1.2375047     0.013427325
      5802.00       1.2384752     0.013773094
      5807.81       1.2346337     0.013601540
      5813.61       1.2311881     0.013654998
      5819.43       1.2272630     0.014005020
      5825.25       1.2229045     0.013829755
      5831.07       1.2192408     0.013880982
      5836.90       1.2125172     0.014225886
      5842.74       1.1918262     0.014031202
      5848.58       1.1728063     0.014074649
      5854.43       1.1558931     0.014127741
      5860.29       1.1410306     0.014195399
      5866.15       1.1266660     0.014226746
      5872.01       1.1148704     0.014267451
      5877.89       1.0997524     0.014306403
      5883.76       1.0939893     0.014330176
      5889.65       1.0919446     0.014383463
      5895.54       1.0885527     0.014395205
      5901.43       1.0908817     0.014419609
      5907.34       1.1010577     0.014460186
      5913.24       1.1086177     0.014466773
      5919.16       1.1174612     0.014484336
      5925.08       1.1325673     0.014502706
      5931.00       1.1412917     0.014506969
      5936.93       1.1469019     0.014253440
      5942.87       1.1516038     0.014529754
      5948.81       1.1480022     0.014530305
      5954.76       1.1382115     0.014261783
      5960.72       1.1293756     0.014535997
      5966.68       1.1275916     0.014540502
      5972.64       1.1206933     0.014264136
      5978.62       1.1098713     0.014539446
      5984.60       1.1001959     0.014276397
      5990.58       1.0929351     0.014258349
      5996.57       1.0909326     0.014532959
      6002.57       1.0951978     0.014255220
      6008.57       1.0944103     0.014516249
      6014.58       1.0939033     0.014250111
      6020.60       1.0923215     0.014221430
      6026.62       1.0919625     0.014483372
      6032.65       1.0867164     0.014204214
      6038.68       1.0804958     0.014178022
      6044.72       1.0804659     0.014183831
      6050.76       1.0727074     0.014146197
      6056.81       1.0619892     0.014395067
      6062.87       1.0520890     0.014112532
      6068.93       1.0418945     0.014079312
      6075.00       1.0292465     0.014078222
      6081.08       1.0167401     0.014034672
      6087.16      0.99974832     0.014006119
      6093.25      0.98010317     0.013987391
      6099.34      0.96830936     0.013949160
      6105.44      0.96225266     0.013939326
      6111.54      0.95514478     0.013891940
      6117.66      0.94524020     0.013623989
      6123.78      0.93681790     0.013834260
      6129.90      0.92740918     0.013794235
      6136.03      0.92175470     0.013799459
      6142.17      0.91555252     0.013783056
      6148.31      0.91120591     0.013561995
      6154.46      0.90555963     0.013733936
      6160.61      0.90133986     0.013700720
      6166.77      0.89440448     0.013792293
      6172.94      0.89120367     0.013835180
      6179.11      0.88473121     0.013737644
      6185.29      0.88163457     0.014162405
      6191.48      0.88384660     0.014082233
      6197.67      0.87948252     0.014546940
      6203.87      0.87654600     0.014388416
      6210.07      0.87694532     0.014442363
      6216.28      0.88192699     0.014736977
      6222.50      0.89054589     0.014393373
      6228.72      0.89889868     0.014500870
      6234.95      0.91218230     0.014058315
      6241.19      0.92633393     0.013917656
      6247.42      0.94745326     0.013628189
      6253.67      0.96553281     0.013506408
      6259.93      0.99348075     0.013339819
      6266.19       1.0069984     0.013248612
      6272.46       1.0179156     0.013319055
      6278.73       1.0286951     0.012987555
      6285.01       1.0369326     0.012936427
      6291.29       1.0038005    0.0091278984
      6297.58       1.0073362    0.0090489902
      6303.88       1.0120500    0.0090103677
      6310.19       1.0160444    0.0089605727
      6316.50       1.0166729    0.0089400598
      6322.81       1.0155885    0.0089228321
      6329.14       1.0154486    0.0088950640
      6335.47       1.0136461    0.0087767746
      6341.80       1.0100531    0.0088133382
      6348.14       1.0069753    0.0087161475
      6354.49       1.0033299    0.0087597267
      6360.85       1.0006255    0.0086656767
      6367.21      0.99711092    0.0087075134
      6373.57      0.99259322    0.0086096755
      6379.95      0.98605553    0.0085895475
      6386.33      0.97138693    0.0085475041
      6392.72      0.96321837    0.0085297446
      6399.11      0.95699116    0.0086637496
      6405.51      0.95364930    0.0087355647
      6411.92      0.94991443    0.0088910366
      6418.32      0.94612074    0.0090378396
      6424.74      0.94260639    0.0091524761
      6431.17      0.94183488    0.0093802007
      6437.60      0.94063934    0.0096764156
      6444.04      0.94073500     0.010003117
      6450.48      0.93815079     0.010247914
      6456.94      0.93513862     0.010694224
      6463.39      0.93456848     0.011462924
      6469.85      0.93297906     0.012216181
      6476.33      0.93141900     0.010459439
      6482.80      0.92901468     0.010264291
      6489.28      0.92590347     0.010436471
      6495.77      0.92299975     0.010810264
      6502.27      0.92460126     0.011022750
      6508.77      0.92295657     0.011475903
      6515.28      0.92437333     0.011812219
      6521.80      0.92491310     0.012315768
      6528.32      0.92639636     0.012714491
      6534.85      0.92632270     0.013229054
      6541.38      0.93250279     0.013592995
      6547.92      0.93943699     0.014052081
      6554.47      0.95052423     0.014248885
      6561.03      0.94461072     0.014415692
      6567.59      0.93749789     0.014408967
      6574.16      0.92723699     0.014070976
      6580.73      0.93126412     0.013850703
      6587.31      0.94526691     0.013438805
      6593.90      0.94094445     0.013081914
      6600.50      0.93165172     0.012694109
      6607.10      0.92295694     0.012277888
      6613.70      0.90233705     0.011970959
      6620.32      0.88856944     0.011564548
      6626.94      0.87122131     0.011367287
      6633.57      0.86430156     0.011321492
      6640.20      0.85794080     0.010987562
      6646.84      0.85063487     0.011473556
      6653.49      0.83882008     0.013729679
      6660.14      0.82788164     0.012843974
      6666.80      0.81746203     0.011891501
      6673.47      0.81148889     0.011389866
      6680.14      0.82874733    0.0083800369
      6686.82      0.82312936    0.0083171894
      6693.51      0.81578051    0.0085053307
      6700.20      0.80956769    0.0085078958
      6706.90      0.80402381    0.0091435689
      6713.61      0.80098652     0.010251155
      6720.32      0.79723741    0.0098043443
      6727.05      0.79290951    0.0095541213
      6733.77      0.78745570    0.0094288708
      6740.51      0.78122749    0.0092684991
      6747.25      0.77693269    0.0090896602
      6754.00      0.77197968    0.0090181079
      6760.75      0.76544445    0.0089709578
      6767.51      0.76060985    0.0089574884
      6774.28      0.75656162    0.0089345573
      6781.05      0.75373076    0.0088898233
      6787.84      0.75158859    0.0088849744
      6794.62      0.74976977    0.0088827271
      6801.42      0.74865581    0.0089735341
      6808.22      0.74783233    0.0090789154
      6815.03      0.74680487    0.0092649494
      6821.85      0.74231955    0.0094694558
      6828.67      0.73925567    0.0095775505
      6835.50      0.73879699    0.0097831717
      6842.33      0.73666390    0.0098837143
      6849.17      0.73952656     0.010086823
      6856.02      0.74255684     0.010183944
      6862.88      0.74690036     0.010379253
      6869.74      0.74477417     0.010471028
      6876.61      0.73615548     0.010650158
      6883.49      0.73375035     0.010693829
      6890.37      0.73281511     0.010890693
      6897.27      0.73441736     0.010916568
      6904.16      0.74149746     0.011042165
      6911.07      0.74173241     0.011097407
      6917.98      0.73088635     0.011191605
      6924.89      0.72611884     0.011319074
      6931.82      0.72468661     0.011293213
      6938.75      0.72205276     0.011334832
      6945.69      0.72307807     0.011347713
      6952.64      0.72819876     0.011360093
      6959.59      0.72870504     0.011281967
      6966.55      0.72730627     0.011350834
      6973.52      0.72589946     0.011264343
      6980.49      0.72807313     0.011246394
      6987.47      0.73124849     0.011234101
      6994.46      0.73887344     0.011215487
      7001.46      0.74615553     0.011202930
      7008.46      0.74705919     0.011196379
      7015.46      0.74660198     0.011204515
      7022.48      0.74812998     0.011180683
      7029.51      0.75205089     0.011270332
      7036.53      0.75527952     0.011282236
      7043.57      0.76151898     0.011440777
      7050.62      0.76858000     0.011775982
      7057.66      0.76925179     0.011883589
      7064.72      0.76914145     0.012027811
      7071.79      0.77018953     0.012045696
      7078.86      0.77094986     0.012101016
      7085.94      0.77183787     0.012127724
      7093.03      0.77180758     0.012227949
      7100.12      0.77119277     0.012278225
      7107.22      0.77024878     0.012275959
      7114.33      0.76788637     0.012375951
      7121.44      0.76679939     0.012385280
      7128.56      0.76498478     0.012486288
      7135.69      0.76404523     0.012635905
      7142.83      0.75962193     0.012661909
      7149.97      0.75642413     0.012791923
      7157.12      0.75678511     0.012855086
      7164.28      0.76113492     0.012989990
      7171.44      0.76510390     0.013126150
      7178.62      0.76404186     0.013188812
      7185.80      0.76206143     0.013319665
      7192.98      0.75875957     0.013342427
      7200.17      0.75084180     0.013468112
      7207.38      0.74525840     0.013637500
      7214.58      0.73648908     0.013659708
      7221.80      0.73174366     0.013802342
      7229.02      0.72840150     0.013875626
      7236.25      0.72888454     0.014014268
      7243.49      0.73432063     0.014151368
      7250.73      0.73351893     0.014222158
      7257.98      0.72344628     0.014367363
      7265.24      0.71101380     0.014407193
      7272.51      0.70441090     0.014565941
      7279.78      0.70169374     0.014759866
      7287.06      0.69695917     0.014804022
      7294.35      0.69496919     0.014967965
      7301.64      0.69515282     0.015136877
      7308.94      0.69084378     0.015217405
      7316.25      0.68556714     0.015387201
      7323.57      0.67423019     0.015558177
      7330.89      0.66509725     0.015638827
      7338.22      0.65111891     0.015806706
      7345.56      0.64348669     0.015838946
      7352.91      0.63739539     0.016001363
      7360.26      0.63000830     0.016215256
      7367.62      0.62568702     0.016239910
      7374.99      0.62711368     0.016394716
      7382.37      0.63215482     0.016548235
      7389.75      0.63204340     0.016622442
      7397.14      0.62838985     0.016763161
      7404.53      0.61956827     0.016894100
      7411.94      0.61324736     0.016891580
      7419.35      0.60554468     0.017076034
      7426.77      0.60220724     0.017186294
      7434.20      0.59188579     0.017163036
      7441.63      0.57580929     0.017254659
      7449.07      0.56518751     0.017412724
      7456.52      0.55971755     0.017367872
      7463.98      0.55881484     0.017433498
      7471.45      0.55753569     0.017490407
      7478.92      0.55574976     0.017511267
      7486.40      0.55374573     0.017556397
      7493.88      0.55061285     0.017597597
      7501.38      0.54333010     0.017537764
      7508.88      0.53517597     0.017572478
      7516.39      0.53119006     0.017683616
      7523.91      0.53150426     0.017621797
      7531.43      0.53006804     0.017657035
      7538.96      0.53111084     0.017696773
      7546.50      0.53129164     0.017718008
      7554.05      0.53414258     0.017762910
      7561.60      0.54134315     0.017807102
      7569.16      0.54698050     0.017744375
      7576.73      0.55668917     0.017784246
      7584.31      0.56188534     0.017895146
      7591.89      0.56503953     0.017822885
      7599.49      0.55952085     0.017846434
      7607.09      0.55422204     0.017872090
      7614.70      0.55617794     0.017901071
      7622.31      0.55955081     0.017912617
      7629.93      0.56372619     0.017957821
      7637.56      0.57866423     0.018009607
      7645.20      0.58543928     0.017941655
      7652.85      0.59057133     0.017954233
      7660.50      0.59194932     0.018057290
      7668.16      0.59437376     0.017993811
      7675.83      0.59419513     0.018033041
      7683.50      0.60040598     0.018073597
      7691.19      0.61664457     0.018109548
      7698.88      0.62460968     0.018123342
      7706.58      0.63031357     0.018148313
      7714.29      0.63102189     0.018173834
      7722.00      0.62943639     0.018101884
      7729.73      0.62702257     0.018126154
      7737.45      0.62353152     0.018145462
      7745.19      0.61342059     0.018247465
      7752.94      0.59679967     0.018167593
      7760.69      0.59064154     0.018183667
      7768.45      0.59779117     0.018198143
      7776.22      0.61137874     0.018210395
      7784.00      0.62149549     0.018124951
      7791.78      0.62697670     0.018219937
      7799.57      0.63204943     0.018226751
      7807.37      0.62804644     0.018231444
      7815.18      0.62599038     0.018140727
      7822.99      0.63043729     0.018139467
      7830.82      0.64010845     0.018137542
      7838.65      0.64077364     0.018224655
      7846.49      0.64402739     0.018133157
      7854.34      0.64091790     0.018130152
      7862.19      0.63786785     0.018131035
      7870.05      0.63641472     0.018134246
      7877.93      0.63030575     0.018043522
      7885.80      0.62664899     0.018040423
      7893.69      0.62399175     0.018127624
      7901.58      0.62036123     0.018116402
      7909.49      0.61477624     0.018002352
      7917.40      0.60515966     0.017971871
      7925.31      0.59277454     0.017935018
      7933.24      0.58089454     0.017889003
      7941.17      0.57463574     0.017765398
      7949.11      0.57528236     0.017734796
      7957.06      0.57663616     0.017805694
      7965.02      0.57334326     0.017802921
      7972.98      0.56900165     0.017807316
      7980.96      0.56146820     0.017725516
      7988.94      0.55396521     0.017723013
      7996.93      0.54880445     0.017717796
      8004.93      0.54487403     0.017710369
      8012.93      0.54249341     0.017629085
      8020.95      0.53934807     0.017633070
      8028.97      0.53302826     0.017712259
      8036.99      0.52703022     0.017708749
      8045.03      0.52788086     0.017703423
      8053.08      0.52565138     0.017610439
      8061.13      0.52005833     0.017597401
      8069.20      0.50900679     0.017572373
      8077.26      0.50212760     0.017539872
      8085.34      0.49544211     0.017507337
      8093.43      0.49560047     0.017388589
      8101.52      0.49456652     0.017354003
      8109.62      0.49362361     0.017317211
      8117.73      0.48935697     0.017379157
      8125.85      0.48470982     0.017328544
      8133.98      0.47588249     0.017188146
      8142.11      0.46195231     0.017124057
      8150.25      0.44686872     0.017066011
      8158.41      0.43988287     0.017007666
      8166.56      0.43620255     0.016949232
      8174.73      0.43468641     0.016894351
      8182.91      0.43400214     0.016777675
      8191.09      0.42545085     0.016718841
      8199.28      0.42322571     0.016650786
      8207.48      0.43296316     0.016547072
      8215.69      0.44096806     0.016394684
      8223.91      0.44153423     0.016218185
      8232.13      0.43661126     0.016120112
      8240.36      0.42840731     0.015896885
      8248.60      0.42141364     0.015618683
      8256.85      0.41735207     0.015378195
      8265.11      0.42279734     0.015211104
      8273.37      0.44151802     0.018388375
      8281.65      0.43543855     0.018140392
      8289.93      0.42717827     0.017860651
      8298.22      0.41628419     0.017574417
      8306.52      0.40703312     0.017312902
      8314.83      0.39906763     0.017055313
      8323.14      0.39286433     0.016910575
      8331.46      0.39206663     0.016887521
      8339.80      0.38858851     0.016944706
      8348.13      0.38337493     0.017128641
      8356.48      0.37674510     0.017265719
      8364.84      0.37318479     0.017254654
      8373.21      0.36895537     0.017379664
      8381.58      0.36838591     0.017507506
      8389.96      0.36743668     0.017625787
      8398.35      0.36483960     0.017744033
      8406.75      0.36064115     0.017860776
      8415.16      0.35187571     0.017934742
      8423.57      0.34405814     0.017948138
      8432.00      0.34091269     0.017958234
      8440.43      0.33928127     0.017901522
      8448.87      0.33804839     0.017676751
      8457.32      0.33857764     0.017543456
      8465.78      0.34087016     0.017371580
      8474.25      0.33903719     0.017140721
      8482.72      0.34107682     0.016874530
      8491.20      0.34395174     0.016610732
      8499.69      0.34615354     0.016307697
      8508.19      0.35096279     0.015963064
      8516.70      0.35956776     0.015617980
      8525.22      0.36150777     0.015276281
      8533.75      0.36395687     0.014943353
      8542.28      0.36303996     0.014617455
      8550.82      0.36133504     0.014301423
      8559.37      0.36198348     0.013996572
      8567.93      0.36198139     0.013690579
      8576.50      0.36202435     0.013398035
      8585.08      0.36571876     0.013125212
      8593.66      0.37443913     0.012864657
      8602.26      0.38298120     0.012608147
      8610.86      0.38344603     0.012353590
      8619.47      0.37681674     0.012105905
      8628.09      0.36855876     0.011856752
      8636.72      0.36183750     0.011599779
      8645.36      0.35577921     0.011338918
      8654.00      0.35330996     0.011086489
      8662.66      0.35533486     0.010856985
      8671.32      0.35650146     0.010647979
      8679.99      0.35418498     0.010423476
      8688.67      0.34991486     0.010236236
      8697.36      0.34740208     0.010061482
      8706.06      0.34213201    0.0099042273
      8714.76      0.34271272    0.0097655643
      8723.48      0.34350294    0.0096443170
      8732.21      0.34594790    0.0094771171
      8740.93      0.34903680    0.0094005307
      8749.68      0.35344533    0.0093392131
      8758.43      0.35573012    0.0092931851
      8767.19      0.35511070    0.0092732876
      8775.96      0.35288768    0.0092625588
      8784.73      0.35038826    0.0092692527
      8793.52      0.35025846    0.0092978043
      8802.31      0.35245297    0.0093359378
      8811.11      0.35692891    0.0093822609
      8819.92      0.36478778    0.0094478404
      8828.75      0.37066278    0.0095331398
      8837.57      0.37191106    0.0096172226
      8846.41      0.37120605    0.0097099133
      8855.26      0.36801679    0.0098234263
      8864.12      0.36201739    0.0099472292
      8872.98      0.35736220     0.010062866
      8881.85      0.35560626     0.010203700
      8890.73      0.35595922     0.010384913
      8899.63      0.35788898     0.010586789
      8908.52      0.35952738     0.010810277
      8917.43      0.36316726     0.011076121
      8926.35      0.36699712     0.011394773
      8935.28      0.36580548     0.011771409
      8944.22      0.35640081     0.012218024
      8953.16      0.34054779     0.012753909
      8962.11      0.32755811     0.013398099
      8971.08      0.32050871     0.014172810
      8980.05      0.31628416     0.015114517
      8989.03      0.31353291     0.016275921
      8998.02      0.31144790     0.017728481
      9007.02      0.30808808     0.019586020
      9016.02      0.30465468     0.021946445
      9025.04      0.30707715     0.024920469
      9034.07      0.31718021     0.028687591
      9043.10      0.33109576     0.033534582
      9052.14      0.35118690     0.039736302
      9061.20             NaN     0.047635524
      9070.26             NaN     0.057759813
      9079.33             NaN     0.070746797
      9088.41             NaN     0.087599094
      9097.50             NaN      0.10956721
      9106.60             NaN      0.14965858
      9115.70             NaN      0.19233940
      9124.82             NaN      0.25008947
