# starting wavelength =        3735.0303
# ending wavelength =        9192.1844
# O2 telluric scale =       0.48852921
# O2 telluric shift =        2.2928797
# H2O telluric scale =        0
# H2O telluric shift =        0
      3737.45       1.2333771    0.0062709374
      3741.18       1.2284826    0.0062219981
      3744.93       1.2070207    0.0062482397
      3748.67       1.1870266    0.0062380635
      3752.42       1.1855663    0.0062653374
      3756.17       1.1862423    0.0062561426
      3759.93       1.2040118    0.0062421906
      3763.69       1.1957779    0.0062324661
      3767.45       1.1865473    0.0062232793
      3771.22       1.1978749    0.0062495277
      3774.99       1.1944435    0.0061997441
      3778.77       1.1749446    0.0062269669
      3782.54       1.1762606    0.0062166430
      3786.33       1.1790660    0.0062448074
      3790.11       1.1808875    0.0061941484
      3793.90       1.1829608    0.0062216724
      3797.70       1.1875440    0.0062120374
      3801.50       1.1915266    0.0062400402
      3805.30       1.1893833    0.0062297703
      3809.10       1.1888268    0.0061793695
      3812.91       1.1968344    0.0062069817
      3816.73       1.1946208    0.0061969311
      3820.54       1.1858621    0.0062264038
      3824.36       1.1819967    0.0061741432
      3828.19       1.1807263    0.0062028908
      3832.02       1.1733480    0.0061937108
      3835.85       1.1619794    0.0061798623
      3839.68       1.1559375    0.0061702599
      3843.52       1.1545466    0.0061990602
      3847.37       1.1510688    0.0061888617
      3851.22       1.1422426    0.0061767053
      3855.07       1.1360769    0.0061659696
      3858.92       1.1279675    0.0061957620
      3862.78       1.1197100    0.0061867971
      3866.64       1.1098160    0.0061728153
      3870.51       1.1031213    0.0061633489
      3874.38       1.1002373    0.0061927307
      3878.26       1.0924286    0.0061826940
      3882.13       1.0902741    0.0061700271
      3886.02       1.0810664    0.0061596299
      3889.90       1.0715407    0.0061910754
      3893.79       1.0650199    0.0061369518
      3897.69       1.0600473    0.0061677291
      3901.59       1.0560326    0.0061588095
      3905.49       1.0509647    0.0061445975
      3909.39       1.0416347    0.0061762586
      3913.30       1.0359050    0.0061654213
      3917.22       1.0247945    0.0061978117
      3921.13       1.0093170    0.0061427086
      3925.06       1.0017674    0.0061745273
      3928.98      0.99475640    0.0061654868
      3932.91      0.98307654    0.0061513975
      3936.84      0.97670591    0.0061421447
      3940.78      0.96741843    0.0061733501
      3944.72      0.95317066    0.0061618415
      3948.67      0.94293596    0.0061504401
      3952.61      0.93066395    0.0061837039
      3956.57      0.92080382    0.0061276823
      3960.52      0.91730120    0.0061605105
      3964.48      0.91180330    0.0061515759
      3968.45      0.90499523    0.0061375692
      3972.42      0.89566137    0.0061714853
      3976.39      0.89173712    0.0061604346
      3980.37      0.88845844    0.0061487018
      3984.35      0.88976557    0.0061374235
      3988.33      0.89402836    0.0061724069
      3992.32      0.89974590    0.0061591380
      3996.31      0.90002501    0.0061491338
      4000.31      0.90469787    0.0061834471
      4004.31      0.91283700    0.0061260515
      4008.31      0.91753378    0.0061604297
      4012.32      0.92142110    0.0061963125
      4016.33      0.92807344    0.0061374495
      4020.35      0.93353291    0.0061730850
      4024.37      0.93988829    0.0062094201
      4028.40      0.94651007    0.0061499456
      4032.42      0.95380393    0.0061861165
      4036.46      0.95686128    0.0061753616
      4040.50      0.96396487    0.0061629228
      4044.54      0.96790972    0.0062000981
      4048.58      0.96949682    0.0061914311
      4052.63      0.97291099    0.0061768649
      4056.68      0.97670069    0.0062146711
      4060.74      0.98321496    0.0061539152
      4064.80      0.98884156    0.0061911431
      4068.86      0.98766730    0.0062303665
      4072.93      0.99429986    0.0061678016
      4077.01      0.99934948    0.0062070532
      4081.08       1.0055218    0.0062461216
      4085.17       1.0173629    0.0061837226
      4089.25       1.0254626    0.0062224379
      4093.34       1.0235648    0.0062113401
      4097.43       1.0289808    0.0061990043
      4101.53       1.0363101    0.0062410070
      4105.63       1.0352326    0.0062270629
      4109.74       1.0357901    0.0062176911
      4113.85       1.0345595    0.0062035261
      4117.96       1.0338059    0.0062451166
      4122.08       1.0361130    0.0062338414
      4126.20       1.0328948    0.0062212356
      4130.33       1.0301253    0.0062642985
      4134.46       1.0251167    0.0062509407
      4138.59       1.0188030    0.0062409620
      4142.73       1.0121332    0.0062831063
      4146.88       1.0052096    0.0062714164
      4151.02      0.99976214    0.0062593641
      4155.18      0.99496207    0.0062469692
      4159.33      0.99032187    0.0062919230
      4163.49      0.99126930    0.0062789094
      4167.65      0.98889592    0.0062686594
      4171.82      0.98821395    0.0063128900
      4175.99      0.98548696    0.0063008824
      4180.17      0.98212004    0.0062887644
      4184.35      0.98467239    0.0062761592
      4188.54      0.98578529    0.0063240657
      4192.72      0.98515861    0.0063106155
      4196.92      0.98991502    0.0063009811
      4201.11      0.99606455    0.0063466942
      4205.31       1.0060048    0.0063341951
      4209.52       1.0130373    0.0063236324
      4213.73       1.0160265    0.0063094697
      4217.94       1.0157656    0.0062980249
      4222.16       1.0214805    0.0062258049
      4226.38       1.0289800    0.0062727575
      4230.61       1.0336625    0.0062026731
      4234.84       1.0405403    0.0062483852
      4239.08       1.0439119    0.0062365495
      4243.32       1.0484012    0.0061658010
      4247.56       1.0539707    0.0062117245
      4251.81       1.0560024    0.0061432312
      4256.06       1.0591761    0.0061291220
      4260.32       1.0610245    0.0061753933
      4264.58       1.0657351    0.0061066338
      4268.84       1.0697057    0.0060930733
      4273.11       1.0728001    0.0060849691
      4277.38       1.0793584    0.0060702193
      4281.66       1.0895286    0.0060570757
      4285.94       1.1022662    0.0060486730
      4290.23       1.1122298    0.0060344186
      4294.52       1.1197926    0.0060214123
      4298.81       1.1286211    0.0059538295
      4303.11       1.1400498    0.0059986587
      4307.42       1.1494484    0.0059857585
      4311.72       1.1578078    0.0059187691
      4316.04       1.1657609    0.0059633308
      4320.35       1.1762996    0.0058952589
      4324.67       1.1883964    0.0058836530
      4329.00       1.1959585    0.0059280475
      4333.33       1.1997954    0.0058603041
      4337.66       1.2043946    0.0058488922
      4342.00       1.2064306    0.0058383119
      4346.34       1.2090434    0.0058256588
      4350.69       1.2104034    0.0058139360
      4355.04       1.2076074    0.0058032284
      4359.39       1.2081114    0.0057914299
      4363.75       1.2091494    0.0057794431
      4368.12       1.2100152    0.0057684649
      4372.48       1.2114747    0.0057044366
      4376.86       1.2100911    0.0057450374
      4381.23       1.2099905    0.0057337035
      4385.61       1.2094638    0.0056712594
      4390.00       1.2032687    0.0056588066
      4394.39       1.1983851    0.0056993397
      4398.79       1.1951390    0.0056884882
      4403.18       1.1906518    0.0056254541
      4407.59       1.1832467    0.0056135671
      4412.00       1.1720581    0.0056541994
      4416.41       1.1630300    0.0055929562
      4420.82       1.1580793    0.0055803856
      4425.25       1.1491406    0.0055687033
      4429.67       1.1445690    0.0055609548
      4434.10       1.1449553    0.0055481521
      4438.54       1.1394399    0.0055359352
      4442.97       1.1390352    0.0055242888
      4447.42       1.1397620    0.0055164793
      4451.86       1.1446354    0.0055037064
      4456.32       1.1498987    0.0054917414
      4460.77       1.1541387    0.0054802782
      4465.24       1.1547876    0.0054203447
      4469.70       1.1523082    0.0054599749
      4474.17       1.1450121    0.0054479453
      4478.65       1.1414631    0.0054364512
      4483.12       1.1403920    0.0053769412
      4487.61       1.1355068    0.0053665161
      4492.09       1.1296041    0.0054047419
      4496.59       1.1259793    0.0053930364
      4501.08       1.1240480    0.0053337661
      4505.58       1.1235171    0.0053232476
      4510.09       1.1191365    0.0053129793
      4514.60       1.1173306    0.0053504001
      4519.12       1.1168063    0.0052911861
      4523.63       1.1137889    0.0052803966
      4528.16       1.1135076    0.0052699012
      4532.69       1.1105602    0.0052597674
      4537.22       1.1080167    0.0052029314
      4541.76       1.1090986    0.0052381487
      4546.30       1.1081621    0.0052273212
      4550.85       1.1025510    0.0052169078
      4555.40       1.0998763    0.0052067486
      4559.95       1.0972870    0.0051510722
      4564.51       1.0955329    0.0051399577
      4569.08       1.0942404    0.0051291596
      4573.65       1.0950720    0.0051645243
      4578.22       1.0966324    0.0051543241
      4582.80       1.0961502    0.0051001584
      4587.38       1.0944843    0.0050889912
      4591.97       1.0953137    0.0050779987
      4596.56       1.0947423    0.0050674108
      4601.16       1.0951287    0.0050570891
      4605.76       1.0977856    0.0050503075
      4610.37       1.1014874    0.0050390288
      4614.98       1.1039465    0.0050280200
      4619.59       1.1038063    0.0050172024
      4624.21       1.1080876    0.0050067440
      4628.84       1.1121519    0.0049963972
      4633.47       1.1125497    0.0049431608
      4638.10       1.1106978    0.0049331544
      4642.74       1.1128007    0.0049232259
      4647.38       1.1112951    0.0049135899
      4652.03       1.1093012    0.0049472444
      4656.68       1.1082794    0.0049367481
      4661.34       1.1092537    0.0049263184
      4666.00       1.1084796    0.0048737722
      4670.67       1.1034472    0.0048638883
      4675.33       1.1033641    0.0048540429
      4680.01       1.1039966    0.0048443465
      4684.69       1.1050186    0.0048346022
      4689.38       1.1056229    0.0048249720
      4694.07       1.1057471    0.0048155813
      4698.76       1.1039987    0.0047651033
      4703.46       1.1032359    0.0047552000
      4708.16       1.1010889    0.0047453330
      4712.87       1.0992635    0.0047764039
      4717.58       1.0976617    0.0047666660
      4722.30       1.0970127    0.0047571270
      4727.03       1.0937235    0.0047474901
      4731.75       1.0927980    0.0047379663
      4736.48       1.0892463    0.0047283490
      4741.22       1.0832835    0.0047189819
      4745.96       1.0753309    0.0046710667
      4750.71       1.0693102    0.0046613611
      4755.46       1.0637402    0.0046516780
      4760.22       1.0604151    0.0046420186
      4764.97       1.0614039    0.0046324534
      4769.74       1.0628138    0.0046230635
      4774.51       1.0661540    0.0046136715
      4779.29       1.0686470    0.0046042851
      4784.07       1.0696023    0.0045948898
      4788.85       1.0700466    0.0045856287
      4793.64       1.0742667    0.0045764293
      4798.43       1.0793801    0.0045672091
      4803.23       1.0836416    0.0045579997
      4808.03       1.0870351    0.0045109115
      4812.84       1.0917806    0.0045018004
      4817.66       1.0951961    0.0044928762
      4822.48       1.0985103    0.0044838688
      4827.30       1.1034424    0.0044749048
      4832.12       1.1075039    0.0044658571
      4836.96       1.1076168    0.0044570100
      4841.79       1.1084534    0.0044482029
      4846.63       1.1072839    0.0044393172
      4851.48       1.1080952    0.0044304832
      4856.33       1.1082328    0.0044215822
      4861.19       1.1067385    0.0044127879
      4866.05       1.1045534    0.0044040841
      4870.92       1.1002037    0.0043953095
      4875.79       1.0943117    0.0043865842
      4880.66       1.0889516    0.0043777944
      4885.55       1.0877896    0.0043330079
      4890.43       1.0852651    0.0043245052
      4895.32       1.0808125    0.0043160039
      4900.22       1.0775163    0.0043075114
      4905.12       1.0789269    0.0042990219
      4910.02       1.0831504    0.0042906377
      4914.94       1.0874830    0.0042823012
      4919.85       1.0955859    0.0042739726
      4924.77       1.0992042    0.0042656541
      4929.70       1.1020935    0.0042573462
      4934.62       1.1044630    0.0042492334
      4939.56       1.1081191    0.0042411275
      4944.50       1.1109102    0.0042330527
      4949.44       1.1128368    0.0042249907
      4954.39       1.1141686    0.0041810512
      4959.35       1.1146022    0.0041728090
      4964.31       1.1129648    0.0041646682
      4969.27       1.1117105    0.0041564888
      4974.24       1.1107716    0.0041484287
      4979.22       1.1118552    0.0041403942
      4984.20       1.1084939    0.0041324716
      4989.18       1.1023581    0.0041581429
      4994.17       1.1021280    0.0041502878
      4999.16       1.1024778    0.0041087642
      5004.16       1.1009428    0.0041005695
      5009.17       1.0998641    0.0040925339
      5014.18       1.0977106    0.0040844854
      5019.19       1.0950618    0.0040765606
      5024.21       1.0928205    0.0040686207
      5029.23       1.0905339    0.0040608737
      5034.26       1.0889987    0.0040207482
      5039.30       1.0861618    0.0040132765
      5044.34       1.0828739    0.0040058641
      5049.39       1.0802483    0.0039985935
      5054.43       1.0777973    0.0040221814
      5059.49       1.0743986    0.0040143750
      5064.55       1.0751444    0.0040067407
      5069.61       1.0738105    0.0039670800
      5074.68       1.0727090    0.0039597382
      5079.76       1.0718202    0.0039525274
      5084.84       1.0736807    0.0039454829
      5089.92       1.0774531    0.0039385480
      5095.01       1.0793873    0.0038988292
      5100.11       1.0791210    0.0039220997
      5105.21       1.0787387    0.0039148996
      5110.31       1.0777090    0.0039078315
      5115.42       1.0791173    0.0039009041
      5120.54       1.0815663    0.0038625728
      5125.66       1.0840123    0.0038551847
      5130.79       1.0845151    0.0038479638
      5135.92       1.0837821    0.0038711501
      5141.05       1.0804768    0.0038642191
      5146.20       1.0797222    0.0038267730
      5151.34       1.0796443    0.0038194447
      5156.49       1.0810479    0.0038123433
      5161.65       1.0846600    0.0038053796
      5166.81       1.0849009    0.0037986622
      5171.98       1.0866506    0.0037917553
      5177.15       1.0889671    0.0037844853
      5182.33       1.0903254    0.0037774296
      5187.51       1.0904272    0.0037706364
      5192.70       1.0915496    0.0037348001
      5197.89       1.0907632    0.0037571170
      5203.09       1.0887816    0.0037500126
      5208.29       1.0882056    0.0037431832
      5213.50       1.0892852    0.0037075820
      5218.72       1.0911545    0.0037013913
      5223.93       1.0912099    0.0036954135
      5229.16       1.0897400    0.0037163426
      5234.39       1.0872785    0.0036809612
      5239.62       1.0856946    0.0036747705
      5244.86       1.0856808    0.0036689086
      5250.11       1.0842703    0.0036611948
      5255.36       1.0852909    0.0036548153
      5260.61       1.0857701    0.0036487432
      5265.87       1.0866242    0.0036430250
      5271.14       1.0905889    0.0036078510
      5276.41       1.0931971    0.0036291901
      5281.69       1.0987078    0.0036232997
      5286.97       1.1034893    0.0035890411
      5292.26       1.1064918    0.0035827539
      5297.55       1.1080806    0.0036040740
      5302.85       1.1065148    0.0035706408
      5308.15       1.1074550    0.0035641627
      5313.46       1.1104612    0.0035581384
      5318.77       1.1128649    0.0035524978
      5324.09       1.1145985    0.0035459889
      5329.42       1.1141791    0.0035398171
      5334.75       1.1126714    0.0035341147
      5340.08       1.1118882    0.0035280837
      5345.42       1.1121006    0.0035218637
      5350.77       1.1129594    0.0034896580
      5356.12       1.1136869    0.0035103510
      5361.48       1.1138909    0.0035041377
      5366.83       1.1153611    0.0034721026
      5372.20       1.1148294    0.0034669136
      5377.58       1.1150968    0.0034867604
      5382.95       1.1166959    0.0034549737
      5388.34       1.1162272    0.0034498381
      5393.72       1.1145352    0.0034696420
      5399.12       1.1124528    0.0034380202
      5404.52       1.1075238    0.0034329858
      5409.92       1.1045904    0.0034267828
      5415.33       1.1019192    0.0034213591
      5420.75       1.0972590    0.0034165154
      5426.17       1.0945321    0.0033851594
      5431.60       1.0927627    0.0034050949
      5437.03       1.0937861    0.0034004360
      5442.47       1.0947132    0.0033690471
      5447.91       1.0940857    0.0033891031
      5453.36       1.0921033    0.0033585466
      5458.81       1.0900378    0.0033533107
      5464.27       1.0895080    0.0033483514
      5469.73       1.0868994    0.0033428184
      5475.20       1.0833261    0.0033626861
      5480.68       1.0858876    0.0033327252
      5486.16       1.0874234    0.0033275063
      5491.65       1.0836233    0.0033228660
      5497.14       1.0814246    0.0033173715
      5502.64       1.0843881    0.0032884254
      5508.14       1.0833775    0.0033075762
      5513.65       1.0842380    0.0033025245
      5519.16       1.0847246    0.0032741117
      5524.68       1.0853406    0.0032926771
      5530.20       1.0890538    0.0032642385
      5535.73       1.0917701    0.0032831340
      5541.27       1.0944192    0.0032545086
      5546.81       1.0948390    0.0032505121
      5552.36       1.0952084    0.0032450681
      5557.91       1.0964041    0.0032409637
      5563.47       1.0961255    0.0032357950
      5569.04       1.0941539    0.0032314929
      5574.60       1.0911180    0.0032035161
      5580.18       1.0881321    0.0032223133
      5585.76       1.0867663    0.0031946291
      5591.35       1.0846033    0.0032132567
      5596.94       1.0802179    0.0032096068
      5602.53       1.0809807    0.0032044742
      5608.14       1.0810590    0.0031773265
      5613.75       1.0788763    0.0031727781
      5619.36       1.0738657    0.0031687789
      5624.98       1.0698037    0.0031642844
      5630.60       1.0686808    0.0031604608
      5636.23       1.0659480    0.0031558893
      5641.87       1.0605015    0.0031521780
      5647.51       1.0583800    0.0031476701
      5653.16       1.0553571    0.0031440661
      5658.82       1.0533996    0.0031395715
      5664.47       1.0499907    0.0031359869
      5670.14       1.0442843    0.0031315971
      5675.81       1.0409524    0.0031281093
      5681.48       1.0409111    0.0031237897
      5687.17       1.0413302    0.0030983949
      5692.85       1.0415159    0.0031160771
      5698.55       1.0445743    0.0030909666
      5704.25       1.0441737    0.0030866621
      5709.95       1.0455467    0.0030835611
      5715.66       1.0466322    0.0030792573
      5721.38       1.0496296    0.0030764280
      5727.10       1.0530234    0.0030721168
      5732.83       1.0558937    0.0030694865
      5738.56       1.0578244    0.0030650835
      5744.30       1.0548272    0.0030614568
      5750.04       1.0537919    0.0030583322
      5755.79       1.0536879    0.0030545370
      5761.55       1.0527280    0.0030516409
      5767.31       1.0510134    0.0030478287
      5773.08       1.0506591    0.0030232562
      5778.85       1.0478925    0.0030413702
      5784.63       1.0496666    0.0030169295
      5790.41       1.0511516    0.0030146904
      5796.21       1.0522802    0.0030113143
      5802.00       1.0493617    0.0030086415
      5807.81       1.0483693    0.0030056926
      5813.61       1.0451091    0.0030036130
      5819.43       1.0438319    0.0030031912
      5825.25       1.0430542    0.0030017834
      5831.07       1.0434654    0.0030231007
      5836.90       1.0426949    0.0030951438
      5842.74       1.0408725    0.0032109782
      5848.58       1.0361962    0.0033632761
      5854.43       1.0315269    0.0030478895
      5860.29       1.0300551    0.0030776315
      5866.15       1.0292596    0.0031353402
      5872.01       1.0284677    0.0032553850
      5877.89       1.0294873    0.0033867169
      5883.76       1.0347864    0.0035246228
      5889.65       1.0383105    0.0036401357
      5895.54       1.0442496    0.0037188445
      5901.43       1.0494584    0.0037017917
      5907.34       1.0520989    0.0035774173
      5913.24       1.0507266    0.0034840266
      5919.16       1.0529611    0.0033431229
      5925.08       1.0509461    0.0031841602
      5931.00       1.0492142    0.0030887790
      5936.93       1.0478172    0.0030203323
      5942.87       1.0452622    0.0029898517
      5948.81       1.0408587    0.0032871353
      5954.76       1.0416846    0.0031300054
      5960.72       1.0425455    0.0030126992
      5966.68       1.0428072    0.0029185580
      5972.64       1.0425581    0.0028956704
      5978.62       1.0443597    0.0028919359
      5984.60       1.0454247    0.0028894720
      5990.58       1.0467578    0.0028874804
      5996.57       1.0502677    0.0028845822
      6002.57       1.0506487    0.0028824946
      6008.57       1.0516564    0.0028809187
      6014.58       1.0514345    0.0028596408
      6020.60       1.0529818    0.0028577454
      6026.62       1.0527734    0.0028750928
      6032.65       1.0540170    0.0028544252
      6038.68       1.0528746    0.0028526493
      6044.72       1.0521490    0.0028510771
      6050.76       1.0510821    0.0028498694
      6056.81       1.0493088    0.0028480662
      6062.87       1.0537594    0.0028464739
      6068.93       1.0564173    0.0028450579
      6075.00       1.0587931    0.0028247685
      6081.08       1.0597420    0.0028423659
      6087.16       1.0620847    0.0028409198
      6093.25       1.0655448    0.0028205780
      6099.34       1.0662868    0.0028194692
      6105.44       1.0686440    0.0028185851
      6111.54       1.0731595    0.0028360009
      6117.66       1.0750645    0.0028157734
      6123.78       1.0794725    0.0028147454
      6129.90       1.0834634    0.0028139283
      6136.03       1.0886407    0.0028132303
      6142.17       1.0899421    0.0027936630
      6148.31       1.0924620    0.0028106584
      6154.46       1.0928666    0.0028098910
      6160.61       1.0914283    0.0028092796
      6166.77       1.0898944    0.0028090390
      6172.94       1.0900677    0.0027911526
      6179.11       1.0935208    0.0027918342
      6185.29       1.0920659    0.0027909098
      6191.48       1.0911815    0.0028082909
      6197.67       1.0919675    0.0028098492
      6203.87       1.0923134    0.0027943426
      6210.07       1.0912136    0.0027988278
      6216.28       1.0901286    0.0028047094
      6222.50       1.0918747    0.0028113678
      6228.72       1.0926339    0.0028179422
      6234.95       1.0899359    0.0028043540
      6241.19       1.0896081    0.0028265193
      6247.42       1.0900987    0.0028287598
      6253.67       1.0884430    0.0028286519
      6259.93       1.0862857    0.0028261912
      6266.19       1.0877755    0.0028217366
      6272.46       1.0899596    0.0027979675
      6278.73       1.0898182    0.0027921973
      6285.01       1.0902063    0.0027873546
      6291.29       1.0936777    0.0027844886
      6297.58       1.0991980    0.0027825166
      6303.88       1.1037670    0.0027793737
      6310.19       1.1096374    0.0027588714
      6316.50       1.1156597    0.0027569447
      6322.81       1.1177488    0.0027553031
      6329.14       1.1212804    0.0027712172
      6335.47       1.1237898    0.0027701117
      6341.80       1.1250729    0.0027692754
      6348.14       1.1233596    0.0027687507
      6354.49       1.1224588    0.0027685479
      6360.85       1.1226873    0.0027686442
      6367.21       1.1227112    0.0027516738
      6373.57       1.1197201    0.0027521531
      6379.95       1.1198258    0.0027526689
      6386.33       1.1190341    0.0027534541
      6392.72       1.1178850    0.0027547113
      6399.11       1.1143541    0.0027566660
      6405.51       1.1120923    0.0027595639
      6411.92       1.1109551    0.0027630862
      6418.32       1.1109912    0.0027661465
      6424.74       1.1097155    0.0027687936
      6431.17       1.1087441    0.0027713749
      6437.60       1.1056682    0.0027737576
      6444.04       1.1017895    0.0027757044
      6450.48       1.1004706    0.0027768919
      6456.94       1.0987811    0.0027594281
      6463.39       1.0984887    0.0027595710
      6469.85       1.0989330    0.0027429335
      6476.33       1.0991361    0.0027430507
      6482.80       1.0974023    0.0027435412
      6489.28       1.0938477    0.0027443780
      6495.77       1.0919505    0.0027454146
      6502.27       1.0922655    0.0027991273
      6508.77       1.0907682    0.0028859999
      6515.28       1.0924702    0.0028174893
      6521.80       1.0920877    0.0027559219
      6528.32       1.0896508    0.0027766927
      6534.85       1.0904223    0.0028309763
      6541.38       1.0926379    0.0029013392
      6547.92       1.0931253    0.0029774737
      6554.47       1.0948356    0.0030504927
      6561.03       1.0965037    0.0030845221
      6567.59       1.0969365    0.0031201924
      6574.16       1.0988649    0.0031165818
      6580.73       1.1006352    0.0030789415
      6587.31       1.1012348    0.0030213880
      6593.90       1.1016924    0.0029520559
      6600.50       1.1005485    0.0028799047
      6607.10       1.0956086    0.0028260345
      6613.70       1.0914808    0.0027818960
      6620.32       1.0868633    0.0027687537
      6626.94       1.0849488    0.0028788242
      6633.57       1.0833134    0.0028805439
      6640.20       1.0804853    0.0027937268
      6646.84       1.0786557    0.0027585691
      6653.49       1.0752691    0.0027607654
      6660.14       1.0730454    0.0027470195
      6666.80       1.0730629    0.0027493381
      6673.47       1.0719024    0.0027517364
      6680.14       1.0719462    0.0027541993
      6686.82       1.0732188    0.0027567329
      6693.51       1.0710236    0.0027761336
      6700.20       1.0700228    0.0027625157
      6706.90       1.0702967    0.0027649938
      6713.61       1.0722906    0.0027675844
      6720.32       1.0741223    0.0027702811
      6727.05       1.0721882    0.0027730623
      6733.77       1.0689155    0.0027594984
      6740.51       1.0666849    0.0027621770
      6747.25       1.0632655    0.0027659932
      6754.00       1.0626052    0.0027923108
      6760.75       1.0608419    0.0028492748
      6767.51       1.0581515    0.0029392144
      6774.28       1.0570755    0.0029516456
      6781.05       1.0561816    0.0028358548
      6787.84       1.0529103    0.0028492744
      6794.62       1.0514813    0.0029158484
      6801.42       1.0473186    0.0030164650
      6808.22       1.0446150    0.0031343200
      6815.03       1.0406677    0.0032593509
      6821.85       1.0317668    0.0033652462
      6828.67       1.0289669    0.0034570527
      6835.50       1.0283793    0.0035389471
      6842.33       1.0252457    0.0034735078
      6849.17       1.0194179    0.0033973382
      6856.02       1.0087622    0.0032967531
      6862.88       1.0039750    0.0031870608
      6869.74      0.99695472    0.0030790412
      6876.61      0.99463537    0.0030005884
      6883.49      0.99315403    0.0029761134
      6890.37      0.99079537    0.0030807844
      6897.27      0.98811423    0.0030735198
      6904.16      0.98644765    0.0029727807
      6911.07      0.98529908    0.0028946390
      6917.98      0.98414417    0.0028891783
      6924.89      0.98256401    0.0028843438
      6931.82      0.98027018    0.0028977431
      6938.75      0.97899379    0.0028810651
      6945.69      0.97773133    0.0028822728
      6952.64      0.97582863    0.0028689892
      6959.59      0.97727976    0.0028901741
      6966.55      0.97719964    0.0028931422
      6973.52      0.97393528    0.0028793114
      6980.49      0.97074478    0.0028810340
      6987.47      0.96943706    0.0028982223
      6994.46      0.96999627    0.0028826998
      7001.46      0.96869667    0.0028841267
      7008.46      0.97168887    0.0029029613
      7015.46      0.97167694    0.0028885962
      7022.48      0.96969737    0.0028905150
      7029.51      0.96671295    0.0028936628
      7036.53      0.96563867    0.0028964111
      7043.57      0.96345096    0.0029000255
      7050.62      0.96370119    0.0028890657
      7057.66      0.96416085    0.0029133276
      7064.72      0.96348173    0.0029047488
      7071.79      0.96186256    0.0029120940
      7078.86      0.95916041    0.0029393738
      7085.94      0.95214797    0.0029362881
      7093.03      0.94476134    0.0029528301
      7100.12      0.93149863    0.0029825993
      7107.22      0.91892008    0.0030131730
      7114.33      0.90819791    0.0030588220
      7121.44      0.90251161    0.0030940269
      7128.56      0.89647593    0.0031095244
      7135.69      0.88881573    0.0031552405
      7142.83      0.88252933    0.0031718182
      7149.97      0.87238601    0.0031662659
      7157.12      0.86529421    0.0031911627
      7164.28      0.85943210    0.0031747378
      7171.44      0.85582666    0.0031894963
      7178.62      0.85240957    0.0031716485
      7185.80      0.85255099    0.0031741501
      7192.98      0.85315175    0.0031826723
      7200.17      0.85123644    0.0031913985
      7207.38      0.84975690    0.0032017293
      7214.58      0.84611790    0.0032074306
      7221.80      0.84126293    0.0031914563
      7229.02      0.83619000    0.0032053178
      7236.25      0.83266847    0.0031791509
      7243.49      0.83285773    0.0031903874
      7250.73      0.83788536    0.0031656025
      7257.98      0.84748870    0.0031583581
      7265.24      0.85113923    0.0031485141
      7272.51      0.85117382    0.0031367551
      7279.78      0.85004979    0.0031267386
      7287.06      0.85072069    0.0031015512
      7294.35      0.85253610    0.0031121322
      7301.64      0.85110440    0.0030908330
      7308.94      0.84744991    0.0031045867
      7316.25      0.84385593    0.0030875893
      7323.57      0.83936175    0.0030889758
      7330.89      0.83462310    0.0030906389
      7338.22      0.83229804    0.0030923813
      7345.56      0.83058080    0.0030935922
      7352.91      0.82609375    0.0030957637
      7360.26      0.82301497    0.0030983518
      7367.62      0.82345008    0.0031021883
      7374.99      0.82275257    0.0030895980
      7382.37      0.82280454    0.0031116127
      7389.75      0.82394308    0.0030997243
      7397.14      0.82619148    0.0031062808
      7404.53      0.82416407    0.0031110907
      7411.94      0.82295242    0.0031186011
      7419.35      0.82461475    0.0031423146
      7426.77      0.82530787    0.0031317993
      7434.20      0.82312010    0.0031401499
      7441.63      0.82338384    0.0031459826
      7449.07      0.82148287    0.0031545247
      7456.52      0.82058931    0.0031453801
      7463.98      0.81928490    0.0031734874
      7471.45      0.81855747    0.0031949339
      7478.92      0.82183305    0.0033024963
      7486.40      0.82245333    0.0034251074
      7493.88      0.82280082    0.0035783672
      7501.38      0.82563668    0.0038392718
      7508.88      0.83028261    0.0042038441
      7516.39      0.83237797    0.0047167357
      7523.91      0.83751178    0.0057598268
      7531.43      0.83321903    0.0045345619
      7538.96      0.83429839    0.0047611644
      7546.50      0.83483280    0.0051564734
      7554.05      0.84077169    0.0056918470
      7561.60      0.84397283    0.0063029779
      7569.16      0.83765372    0.0067895620
      7576.73      0.83140071    0.0070312645
      7584.31      0.83190797    0.0067519385
      7591.89      0.82312740    0.0062047447
      7599.49      0.82604243    0.0056798316
      7607.09      0.82542510    0.0052393432
      7614.70      0.82443653    0.0049570067
      7622.31      0.82251129    0.0062833635
      7629.93      0.82826812    0.0051160701
      7637.56      0.83159023    0.0045374310
      7645.20      0.83065713    0.0040902499
      7652.85      0.83173158    0.0038469851
      7660.50      0.83196734    0.0036688036
      7668.16      0.83283312    0.0035243600
      7675.83      0.83234452    0.0034222839
      7683.50      0.83140100    0.0033945359
      7691.19      0.83081617    0.0033914233
      7698.88      0.83009097    0.0033923070
      7706.58      0.82942842    0.0033970899
      7714.29      0.83158017    0.0033856800
      7722.00      0.83455237    0.0033938400
      7729.73      0.83738057    0.0034030184
      7737.45      0.84069538    0.0034293588
      7745.19      0.84486242    0.0034202158
      7752.94      0.84870471    0.0034304613
      7760.69      0.85295022    0.0034410070
      7768.45      0.85688231    0.0034518456
      7776.22      0.86034476    0.0034432441
      7784.00      0.86186962    0.0034540341
      7791.78      0.86116644    0.0034820585
      7799.57      0.86371221    0.0034945322
      7807.37      0.86355577    0.0034880449
      7815.18      0.86444779    0.0035012581
      7822.99      0.86228585    0.0035153902
      7830.82      0.86016312    0.0035298280
      7838.65      0.86029002    0.0035432655
      7846.49      0.85874429    0.0035353509
      7854.34      0.85729095    0.0035467578
      7862.19      0.85513672    0.0035751111
      7870.05      0.85360104    0.0035859680
      7877.93      0.85139904    0.0035966602
      7885.80      0.85384926    0.0036072262
      7893.69      0.85246101    0.0035979375
      7901.58      0.84966925    0.0036090612
      7909.49      0.84666765    0.0036209774
      7917.40      0.84439873    0.0036334636
      7925.31      0.84544497    0.0036457584
      7933.24      0.84372766    0.0036581389
      7941.17      0.84187890    0.0036503520
      7949.11      0.84259241    0.0036620200
      7957.06      0.84315816    0.0036728886
      7965.02      0.84371957    0.0036834303
      7972.98      0.84421945    0.0036944044
      7980.96      0.84400963    0.0037058227
      7988.94      0.84475236    0.0037167769
      7996.93      0.84188053    0.0037279571
      8004.93      0.83926696    0.0037409377
      8012.93      0.83762959    0.0037346704
      8020.95      0.83925193    0.0037514933
      8028.97      0.83919814    0.0037719124
      8036.99      0.83926838    0.0037951995
      8045.03      0.83168044    0.0038228573
      8053.08      0.82290718    0.0038574663
      8061.13      0.81677833    0.0038990717
      8069.20      0.80925107    0.0039456151
      8077.26      0.79932060    0.0039955432
      8085.34      0.78920509    0.0040498772
      8093.43      0.78314392    0.0041057291
      8101.52      0.78292395    0.0041504440
      8109.62      0.77697779    0.0041764516
      8117.73      0.76772576    0.0041943046
      8125.85      0.76199353    0.0042095372
      8133.98      0.75565139    0.0042204716
      8142.11      0.75143623    0.0042091171
      8150.25      0.75099538    0.0042131250
      8158.41      0.75135647    0.0042137639
      8166.56      0.75448458    0.0042134816
      8174.73      0.75904050    0.0042159452
      8182.91      0.75826501    0.0042219176
      8191.09      0.75838817    0.0042269107
      8199.28      0.75567766    0.0042288475
      8207.48      0.75734179    0.0042297575
      8215.69      0.75729626    0.0042088658
      8223.91      0.75701382    0.0042070424
      8232.13      0.75747252    0.0042064105
      8240.36      0.76125724    0.0042137307
      8248.60      0.76949806    0.0042274149
      8256.85      0.77541076    0.0042314403
      8265.11      0.77459118    0.0042220880
      8273.37      0.77673042    0.0041935261
      8281.65      0.78153698    0.0041886918
      8289.93      0.78639975    0.0041850796
      8298.22      0.79154274    0.0041846885
      8306.52      0.79759124    0.0041856592
      8314.83      0.79855585    0.0041853693
      8323.14      0.80274332    0.0041865502
      8331.46      0.80363357    0.0041902364
      8339.80      0.80447768    0.0041966278
      8348.13      0.80719358    0.0042041757
      8356.48      0.80734355    0.0041921985
      8364.84      0.80823140    0.0042004987
      8373.21      0.80827200    0.0042092599
      8381.58      0.80802820    0.0042415014
      8389.96      0.81239027    0.0042337020
      8398.35      0.81516439    0.0042451219
      8406.75      0.81799255    0.0042571610
      8415.16      0.82059043    0.0042696069
      8423.57      0.82250434    0.0042640199
      8432.00      0.82636816    0.0042778390
      8440.43      0.82960654    0.0043137639
      8448.87      0.83271099    0.0043274054
      8457.32      0.83359895    0.0043222210
      8465.78      0.83445715    0.0043358354
      8474.25      0.83540394    0.0043490551
      8482.72      0.83902934    0.0043645273
      8491.20      0.83752124    0.0043770071
      8499.69      0.83871589    0.0043895187
      8508.19      0.83866704    0.0043826968
      8516.70      0.84025286    0.0043954404
      8525.22      0.84132898    0.0044310811
      8533.75      0.84339472    0.0044244911
      8542.28      0.84725013    0.0044371022
      8550.82      0.84955679    0.0044503394
      8559.37      0.84881066    0.0044683305
      8567.93      0.84913063    0.0044824632
      8576.50      0.85046397    0.0044966464
      8585.08      0.84908736    0.0044918555
      8593.66      0.84892804    0.0045294551
      8602.26      0.85051781    0.0045437261
      8610.86      0.84986367    0.0045385382
      8619.47      0.84696149    0.0045528813
      8628.09      0.84776196    0.0046760978
      8636.72      0.84903990    0.0046462015
      8645.36      0.85277145    0.0046034752
      8654.00      0.85360701    0.0046252243
      8662.66      0.85646351    0.0046846342
      8671.32      0.86057052    0.0047414502
      8679.99      0.86433807    0.0048249481
      8688.67      0.86676652    0.0049389230
      8697.36      0.87177565    0.0049868520
      8706.06      0.87279067    0.0050438076
      8714.76      0.87012844    0.0050783483
      8723.48      0.87082054    0.0050708794
      8732.21      0.87086079    0.0050441600
      8740.93      0.86788750    0.0049973685
      8749.68      0.86516284    0.0049161503
      8758.43      0.86289324    0.0048852092
      8767.19      0.86223784    0.0048201608
      8775.96      0.85591459    0.0047998964
      8784.73      0.85148161    0.0048467137
      8793.52      0.85102952    0.0049841759
      8802.31      0.85054972    0.0049110991
      8811.11      0.84987024    0.0048806126
      8819.92      0.84784917    0.0048824600
      8828.75      0.84477894    0.0049302476
      8837.57      0.84089206    0.0049382288
      8846.41      0.83572246    0.0050977051
      8855.26      0.82941955    0.0051841642
      8864.12      0.82087724    0.0050941462
      8872.98      0.80870709    0.0051404877
      8881.85      0.79813941    0.0052598355
      8890.73      0.78744319    0.0054355008
      8899.63      0.77406775    0.0056184699
      8908.52      0.76182915    0.0058353726
      8917.43      0.75240474    0.0059885226
      8926.35      0.74406677    0.0061867743
      8935.28      0.73936159    0.0062236005
      8944.22      0.73153805    0.0062053106
      8953.16      0.73099146    0.0061381354
      8962.11      0.72863864    0.0060355292
      8971.08      0.72666692    0.0059150075
      8980.05      0.72670841    0.0057853320
      8989.03      0.72797790    0.0057323135
      8998.02      0.72438661    0.0056613805
      9007.02      0.72280265    0.0056420797
      9016.02      0.71548924    0.0057724353
      9025.04      0.71390519    0.0059174921
      9034.07      0.71107177    0.0057349273
      9043.10      0.70705103    0.0056329045
      9052.14      0.70058823    0.0056245933
      9061.20      0.69666549    0.0056257775
      9070.26      0.69510149    0.0055709839
      9079.33      0.69337361    0.0055540545
      9088.41      0.69848900    0.0055097683
      9097.50      0.70486042    0.0054624236
      9106.60      0.70938515    0.0054191603
      9115.70      0.71917856    0.0054006058
      9124.82      0.72942613    0.0053445132
      9133.94      0.73892640    0.0053085126
      9143.08      0.74600573    0.0052931447
      9152.22      0.75526812    0.0052708542
      9161.37      0.75955027    0.0052533423
      9170.54      0.76430941    0.0052492716
      9179.71      0.76643796    0.0052682923
      9188.89      0.76286035    0.0053332686
