# starting wavelength =        3729.4600
# ending wavelength =        7977.1300
# O2 telluric scale =       0.60231921
# O2 telluric shift =      -0.35271346
# H2O telluric scale =        0
# H2O telluric shift =        0
      3729.98      0.40425456     0.052448060
      3733.71      0.41604316     0.036096245
      3737.45      0.41879831     0.024559178
      3741.18      0.40154172     0.020344965
      3744.93      0.36799538     0.018407997
      3748.67      0.33640685     0.017071473
      3752.42      0.29497477     0.016046593
      3756.17      0.24094037     0.015997678
      3759.93      0.20686099     0.015717578
      3763.69      0.16114765     0.015913627
      3767.45      0.13332966     0.015634157
      3771.22      0.10076480     0.015830069
      3774.99     0.081097907     0.015549955
      3778.77     0.083477728     0.015746701
      3782.54     0.088821311     0.015467058
      3786.33     0.086403457     0.015665515
      3790.11     0.085192511     0.015384791
      3793.90     0.095642713     0.015357859
      3797.70     0.098108097     0.015303921
      3801.50     0.090157220     0.015273966
      3805.30     0.095066638     0.015223381
      3809.10     0.089111837     0.015191076
      3812.91     0.080766363     0.015143737
      3816.73     0.074996795     0.015108474
      3820.54     0.074132491     0.014854215
      3824.36     0.082479827     0.015027915
      3828.19      0.12571402     0.015003286
      3832.02      0.15388318     0.014948425
      3835.85      0.16542891     0.014920102
      3839.68      0.17960283     0.014871174
      3843.52      0.18276690     0.014838855
      3847.37      0.17539680     0.014586406
      3851.22      0.17871685     0.014758760
      3855.07      0.18064386     0.014514283
      3858.92      0.17559576     0.014680434
      3862.78      0.18686327     0.014651956
      3866.64      0.20332895     0.014399931
      3870.51      0.22075144     0.014572248
      3874.38      0.24131399     0.014328473
      3878.26      0.27285029     0.014494834
      3882.13      0.28895594     0.014260109
      3886.02      0.31101357     0.014217923
      3889.90      0.33761095     0.014388297
      3893.79      0.36640177     0.014147252
      3897.69      0.40125110     0.014111105
      3901.59      0.45314132     0.014081558
      3905.49      0.51296944     0.014039701
      3909.39      0.57149738     0.014207195
      3913.30      0.62295555     0.013971926
      3917.22      0.67403215     0.013934347
      3921.13      0.71722971     0.013908300
      3925.06      0.76560000     0.013865481
      3928.98      0.81472367     0.013831398
      3932.91      0.83932998     0.013801807
      3936.84      0.85390659     0.013762175
      3940.78      0.85335875     0.013534036
      3944.72      0.83853134     0.013697928
      3948.67      0.80987057     0.013660994
      3952.61      0.77929327     0.013435699
      3956.57      0.74936900     0.013596220
      3960.52      0.73355889     0.013560622
      3964.48      0.72044302     0.013338528
      3968.45      0.72627494     0.013496257
      3972.42      0.75511598     0.013269523
      3976.39      0.77524394     0.013242776
      3980.37      0.80606072     0.013398370
      3984.35      0.84172160     0.013174024
      3988.33      0.86546025     0.013147822
      3992.32      0.88680080     0.013302309
      3996.31      0.91371655     0.013079623
      4000.31      0.92891812     0.013053367
      4004.31      0.94341831     0.013207993
      4008.31      0.95352353     0.012985734
      4012.32      0.94951188     0.012959696
      4016.33      0.94105204     0.012938772
      4020.35      0.94309616     0.012894111
      4024.37      0.93989154     0.012867014
      4028.40      0.94413489     0.012844995
      4032.42      0.95245980     0.012804192
      4036.46      0.93571237     0.012776124
      4040.50      0.92131039     0.012752916
      4044.54      0.92622162     0.012547152
      4048.58      0.92613129     0.012686965
      4052.63      0.90961487     0.012661495
      4056.68      0.89369436     0.012462362
      4060.74      0.89088113     0.012599469
      4064.80      0.86812057     0.012572817
      4068.86      0.86269873     0.012550448
      4072.93      0.84144744     0.012348229
      4077.01      0.82695456     0.012486324
      4081.08      0.80796895     0.012461791
      4085.17      0.76558731     0.012268549
      4089.25      0.74213986     0.012238283
      4093.34      0.72015263     0.012375786
      4097.43      0.70792354     0.012352444
      4101.53      0.70554185     0.012158857
      4105.63      0.70762361     0.012130280
      4109.74      0.72484797     0.012267247
      4113.85      0.75557198     0.012244692
      4117.96      0.78546668     0.012053163
      4122.08      0.79368407     0.012024848
      4126.20      0.79791831     0.012000047
      4130.33      0.80239296     0.011981569
      4134.46      0.80013762     0.011950802
      4138.59      0.80364274     0.011922724
      4142.73      0.79684955     0.011897082
      4146.88      0.78431284     0.011881962
      4151.02      0.77107531     0.011851634
      4155.18      0.75851032     0.011823484
      4159.33      0.74863523     0.011797673
      4163.49      0.74287397     0.011774159
      4167.65      0.74057155     0.011756046
      4171.82      0.73342101     0.011727577
      4175.99      0.73668632     0.011701115
      4180.17      0.74417499     0.011676783
      4184.35      0.74553431     0.011495737
      4188.54      0.75878669     0.011475355
      4192.72      0.76266629     0.011609150
      4196.92      0.77242791     0.011583788
      4201.11      0.77298206     0.011560216
      4205.31      0.77346283     0.011381095
      4209.52      0.77641951     0.011360793
      4213.73      0.76097190     0.011342345
      4217.94      0.74976892     0.011470803
      4222.16      0.73917079     0.011447446
      4226.38      0.72019866     0.011269770
      4230.61      0.69753291     0.011249266
      4234.84      0.67153813     0.011230398
      4239.08      0.65513674     0.011213176
      4243.32      0.64755525     0.011339520
      4247.56      0.64074706     0.011162881
      4251.81      0.63239671     0.011142036
      4256.06      0.62730312     0.011122220
      4260.32      0.63496218     0.011103956
      4264.58      0.64458386     0.011086462
      4268.84      0.64935986     0.011069949
      4273.11      0.65410090     0.010901446
      4277.38      0.65631213     0.011019743
      4281.66      0.66340933     0.011000593
      4285.94      0.67494991     0.010982051
      4290.23      0.68142961     0.010964272
      4294.52      0.69549890     0.010947220
      4298.81      0.69807366     0.010930546
      4303.11      0.69461737     0.010767669
      4307.42      0.68928420     0.010748476
      4311.72      0.68651594     0.010729725
      4316.04      0.68147838     0.010711621
      4320.35      0.66750564     0.010829825
      4324.67      0.64764355     0.010812875
      4329.00      0.63339736     0.010796943
      4333.33      0.62100021     0.010644328
      4337.66      0.61555819     0.010625258
      4342.00      0.60688690     0.010606396
      4346.34      0.59957477     0.010588324
      4350.69      0.59342800     0.010570979
      4355.04      0.58192738     0.010554381
      4359.39      0.56559169     0.010537744
      4363.75      0.55006608     0.010521452
      4368.12      0.52406229     0.010505498
      4372.48      0.50060379     0.010490162
      4376.86      0.48220580     0.010478935
      4381.23      0.47548738     0.010461479
      4385.61      0.47159554     0.010444431
      4390.00      0.47283265     0.010427621
      4394.39      0.48207874     0.010411469
      4398.79      0.49309225     0.010395554
      4403.18      0.51103129     0.010379884
      4407.59      0.53813210     0.010364035
      4412.00      0.56224298     0.010348743
      4416.41      0.59077318     0.010333938
      4420.82      0.61417893     0.010319628
      4425.25      0.63791956     0.010305198
      4429.67      0.66601787     0.010290914
      4434.10      0.68964178     0.010143024
      4438.54      0.71659949     0.010129319
      4442.97      0.73589590     0.010116077
      4447.42      0.74453487     0.010102729
      4451.86      0.75495294     0.010089537
      4456.32      0.75589993     0.010076492
      4460.77      0.76078694     0.010063448
      4465.24      0.75593218     0.010051041
      4469.70      0.74922598     0.010038433
      4474.17      0.74419615     0.010025928
      4478.65      0.73266653     0.010013190
      4483.12      0.73053662     0.010000899
      4487.61      0.72216006    0.0099890420
      4492.09      0.72288744    0.0099770991
      4496.59      0.72432006    0.0099652230
      4501.08      0.73114739    0.0099531926
      4505.58      0.74138273    0.0099414866
      4510.09      0.74635381    0.0099300948
      4514.60      0.75855343    0.0099190530
      4519.12      0.77089826    0.0099078285
      4523.63      0.78596991    0.0098967080
      4528.16      0.81162051    0.0098854756
      4532.69      0.83752126    0.0097576868
      4537.22      0.85926762    0.0097476753
      4541.76      0.88557849    0.0097374554
      4546.30      0.90217577    0.0097271683
      4550.85      0.91954541    0.0097173442
      4555.40      0.94093190    0.0097079699
      4559.95      0.95698909    0.0096986482
      4564.51      0.95710254    0.0096895040
      4569.08      0.95397621    0.0096804032
      4573.65      0.95877136    0.0096717278
      4578.22      0.96813607    0.0096634895
      4582.80      0.97084591    0.0096557354
      4587.38      0.96739472    0.0096479878
      4591.97      0.96423517    0.0096402007
      4596.56      0.95789021    0.0096285680
      4601.16      0.95172426    0.0096197377
      4605.76      0.93393296    0.0096110670
      4610.37      0.92570737    0.0096027183
      4614.98      0.92781466    0.0095947056
      4619.59      0.93118874    0.0095869771
      4624.21      0.93460892    0.0095799757
      4628.84      0.95149396    0.0095732025
      4633.47      0.98739993    0.0095668720
      4638.10       1.0098714    0.0094430578
      4642.74       1.0344299    0.0094346506
      4647.38       1.0712162    0.0094268930
      4652.03       1.0979324    0.0094197826
      4656.68       1.1209600    0.0095313386
      4661.34       1.1287390    0.0095245625
      4666.00       1.1273713    0.0095185113
      4670.67       1.1304995    0.0094020007
      4675.33       1.1204852    0.0093938647
      4680.01       1.1032240    0.0093859559
      4684.69       1.0840403    0.0093784002
      4689.38       1.0685646    0.0093716745
      4694.07       1.0604425    0.0093658060
      4698.76       1.0471286    0.0094789630
      4703.46       1.0530450    0.0093649479
      4708.16       1.0463434    0.0093568362
      4712.87       1.0498306    0.0093496531
      4717.58       1.0507521    0.0093434114
      4722.30       1.0509497    0.0093376991
      4727.03       1.0440257    0.0092279338
      4731.75       1.0306186    0.0092239459
      4736.48       1.0150053    0.0093317872
      4741.22      0.99877813    0.0093250309
      4745.96      0.97448464    0.0093190107
      4750.71      0.95519001    0.0093136368
      4755.46      0.94069848    0.0092050831
      4760.22      0.92932594    0.0092022188
      4764.97      0.91286922    0.0093092273
      4769.74      0.90494542    0.0093031669
      4774.51      0.90123431    0.0091938303
      4779.29      0.89403964    0.0091901646
      4784.07      0.87996936    0.0091879002
      4788.85      0.86241124    0.0091867148
      4793.64      0.85056725    0.0092898304
      4798.43      0.82941424    0.0091813970
      4803.23      0.80066446    0.0091785143
      4808.03      0.77202386    0.0091771180
      4812.84      0.74337710    0.0091772968
      4817.66      0.71796540    0.0091751492
      4822.48      0.68975174    0.0091719106
      4827.30      0.66656110    0.0091702334
      4832.12      0.64438058    0.0091701437
      4836.96      0.61840464    0.0090615572
      4841.79      0.59313584    0.0091677389
      4846.63      0.56982680    0.0091659836
      4851.48      0.54971225    0.0091660797
      4856.33      0.52939470    0.0090585503
      4861.19      0.51136677    0.0091652354
      4866.05      0.49397824    0.0091638723
      4870.92      0.48197432    0.0091645437
      4875.79      0.47535491    0.0090570814
      4880.66      0.47567738    0.0090551475
      4885.55      0.48933823    0.0091639802
      4890.43      0.49755785    0.0090605660
      4895.32      0.50551270    0.0090572368
      4900.22      0.52155431    0.0090559681
      4905.12      0.54445454    0.0090658913
      4910.02      0.56520394    0.0090613274
      4914.94      0.58616174    0.0090589820
      4919.85      0.61216179    0.0091687857
      4924.77      0.63826050    0.0090668137
      4929.70      0.67402393    0.0090636984
      4934.62      0.71621246    0.0090631039
      4939.56      0.76408440    0.0090729622
      4944.50      0.82457460    0.0090697667
      4949.44      0.88604406    0.0090688607
      4954.39      0.95237022    0.0090799319
      4959.35       1.0412141    0.0090760620
      4964.31       1.1245971    0.0090749840
      4969.27       1.2082123    0.0089801691
      4974.24       1.2958862    0.0090837357
      4979.22       1.3711922    0.0090825115
      4984.20       1.4412167    0.0089876667
      4989.18       1.5069359    0.0090917379
      4994.17       1.5685985    0.0089946241
      4999.16       1.6135346    0.0089969230
      5004.16       1.6461692    0.0091004449
      5009.17       1.6684812    0.0090034009
      5014.18       1.6805212    0.0090064563
      5019.19       1.6799611    0.0091101357
      5024.21       1.6563669    0.0090138417
      5029.23       1.6242161    0.0090178023
      5034.26       1.5808893    0.0090232440
      5039.30       1.5270544    0.0090253323
      5044.34       1.4641035    0.0090303864
      5049.39       1.3935275    0.0090346183
      5054.43       1.3241770    0.0090378947
      5059.49       1.2481836    0.0089418089
      5064.55       1.1676924    0.0090472142
      5069.61       1.1047615    0.0090519618
      5074.68       1.0503651    0.0090579052
      5079.76       1.0048987    0.0090611128
      5084.84      0.96181791    0.0089656892
      5089.92      0.93618812    0.0090714293
      5095.01      0.92516167    0.0089789157
      5100.11      0.91508580    0.0089789174
      5105.21      0.92029849    0.0090877001
      5110.31      0.93455151    0.0089917457
      5115.42      0.94932293    0.0090986135
      5120.54      0.96001896    0.0090048084
      5125.66      0.97195548    0.0090059197
      5130.79      0.98483730    0.0090191365
      5135.92       1.0014830    0.0090188730
      5141.05       1.0221532    0.0090338362
      5146.20       1.0340258    0.0090327514
      5151.34       1.0473309    0.0090495021
      5156.49       1.0514044    0.0090469943
      5161.65       1.0497213    0.0090493573
      5166.81       1.0411570    0.0090616562
      5171.98       1.0364421    0.0090632650
      5177.15       1.0289758    0.0090767392
      5182.33       1.0176605    0.0090775880
      5187.51       1.0029801    0.0090920606
      5192.70      0.99256234    0.0090923607
      5197.89      0.97691650    0.0090058458
      5203.09      0.97757444    0.0091074067
      5208.29      0.97505851    0.0090204214
      5213.50      0.97257607    0.0091227038
      5218.72      0.96860995    0.0090355304
      5223.93      0.95803359    0.0091384010
      5229.16      0.95073807    0.0090510625
      5234.39      0.93683380    0.0091543284
      5239.62      0.93380682    0.0090670785
      5244.86      0.93508760    0.0090777454
      5250.11      0.93622632    0.0090833823
      5255.36      0.95154956    0.0090938375
      5260.61      0.95945605    0.0090999925
      5265.87      0.96764424    0.0091105901
      5271.14      0.98652055    0.0091172053
      5276.41       1.0049527    0.0091269768
      5281.69       1.0325626    0.0091345633
      5286.97       1.0710800    0.0091443512
      5292.26       1.0986694    0.0091529690
      5297.55       1.1059588    0.0091615167
      5302.85       1.1213501    0.0090735346
      5308.15       1.1298055    0.0091797784
      5313.46       1.1375850    0.0090906156
      5318.77       1.1485531    0.0091980316
      5324.09       1.1530494    0.0091078263
      5329.42       1.1462635    0.0091237710
      5334.75       1.1398876    0.0091259706
      5340.08       1.1326773    0.0091403404
      5345.42       1.1350537    0.0092467289
      5350.77       1.1467675    0.0091577758
      5356.12       1.1469370    0.0091747253
      5361.48       1.1384212    0.0091755541
      5366.83       1.1455052    0.0091912205
      5372.20       1.1558891    0.0091943906
      5377.58       1.1706880    0.0092083005
      5382.95       1.1960025    0.0092261100
      5388.34       1.2222236    0.0092266543
      5393.72       1.2433928    0.0092423671
      5399.12       1.2601718    0.0091564054
      5404.52       1.2681023    0.0092601551
      5409.92       1.2675745    0.0091768536
      5415.33       1.2613015    0.0092786581
      5420.75       1.2339631    0.0092940578
      5426.17       1.2029995    0.0092089475
      5431.60       1.1658688    0.0093123548
      5437.03       1.1192933    0.0093285463
      5442.47       1.0889572    0.0092420153
      5447.91       1.0637606    0.0093465222
      5453.36       1.0480583    0.0092636691
      5458.81       1.0513069    0.0092756457
      5464.27       1.0683803    0.0093811645
      5469.73       1.1025807    0.0092977141
      5475.20       1.1481909    0.0093098604
      5480.68       1.2100754    0.0094157526
      5486.16       1.2776590    0.0093317824
      5491.65       1.3508777    0.0093442296
      5497.14       1.4118740    0.0093589466
      5502.64       1.4755606    0.0093667251
      5508.14       1.5305016    0.0093790794
      5513.65       1.5795945    0.0092938479
      5519.16       1.6048344    0.0094025263
      5524.68       1.6237109    0.0094143923
      5530.20       1.6269745    0.0093282394
      5535.73       1.6176720    0.0093439021
      5541.27       1.5919899    0.0094503222
      5546.81       1.5459219    0.0094637958
      5552.36       1.4891165    0.0093781396
      5557.91       1.4281350    0.0093950388
      5563.47       1.3598101    0.0094999998
      5569.04       1.3047181    0.0094129300
      5574.60       1.2474492    0.0094287037
      5580.18       1.2006311    0.0094459349
      5585.76       1.1688706    0.0094482994
      5591.35       1.1526266    0.0094631886
      5596.94       1.1543489    0.0094792229
      5602.53       1.1658254    0.0094966352
      5608.14       1.1836287    0.0094986999
      5613.75       1.2045358    0.0095136416
      5619.36       1.2314551    0.0095295671
      5624.98       1.2582164    0.0095468961
      5630.60       1.2802691    0.0094605489
      5636.23       1.2959329    0.0095638980
      5641.87       1.3086956    0.0095796086
      5647.51       1.3076678    0.0095963490
      5653.16       1.2932087    0.0095109465
      5658.82       1.2596419    0.0095252410
      5664.47       1.2182496    0.0096296854
      5670.14       1.1607233    0.0096457323
      5675.81       1.0900755    0.0095625325
      5681.48       1.0125319    0.0095759840
      5687.17      0.91826348    0.0095901925
      5692.85      0.82467151    0.0096953831
      5698.55      0.73271362    0.0096151420
      5704.25      0.64750435    0.0096278262
      5709.95      0.58428626    0.0096413014
      5715.66      0.53859550    0.0096551673
      5721.38      0.50152647    0.0096699386
      5727.10      0.47776449    0.0095864524
      5732.83      0.47384858    0.0096952243
      5738.56      0.48625591    0.0097099761
      5744.30      0.50603362    0.0097257025
      5750.04      0.53743637    0.0097433291
      5755.79      0.56516589    0.0097654871
      5761.55      0.60172257    0.0096915271
      5767.31      0.64388365    0.0097226817
      5773.08      0.70212350    0.0097549832
      5778.85      0.77390011    0.0098730253
      5784.63      0.85042870    0.0098953921
      5790.41      0.93139994    0.0099143910
      5796.21       1.0285357    0.0098275139
      5802.00       1.1397303    0.0098375319
      5807.81       1.2528353    0.0098475890
      5813.61       1.3599567    0.0098612794
      5819.43       1.4729333    0.0098770246
      5825.25       1.5724017    0.0098919958
      5831.07       1.6594758    0.0099050017
      5836.90       1.7373164    0.0098163250
      5842.74       1.7930933    0.0098274812
      5848.58       1.8501023    0.0099259752
      5854.43       1.8785022    0.0099313707
      5860.29       1.9091401    0.0099372497
      5866.15       1.9494113    0.0099468439
      5872.01       1.9696927    0.0099563807
      5877.89       1.9832713    0.0099633019
      5883.76       1.9901669    0.0099702211
      5889.65       1.9959979    0.0099783792
      5895.54       1.9876040    0.0098912497
      5901.43       1.9665025    0.0099003958
      5907.34       1.9259745    0.0099103225
      5913.24       1.8779920    0.0099217812
      5919.16       1.8226493    0.0099342549
      5925.08       1.7717726    0.0099468439
      5931.00       1.7288279    0.0099601059
      5936.93       1.7051718    0.0099731625
      5942.87       1.6805535    0.0099865189
      5948.81       1.6528291    0.0099996024
      5954.76       1.6454052     0.010012861
      5960.72       1.6386859     0.010026280
      5966.68       1.6226615     0.010039403
      5972.64       1.6018091     0.010052587
      5978.62       1.5712860     0.010065717
      5984.60       1.5390370     0.010078926
      5990.58       1.5021531     0.010091814
      5996.57       1.4610711     0.010104878
      6002.57       1.4201612     0.010118057
      6008.57       1.3854480     0.010130908
      6014.58       1.3606265     0.010143772
      6020.60       1.3246376     0.010156520
      6026.62       1.2863407     0.010169662
      6032.65       1.2489011     0.010093435
      6038.68       1.2111884     0.010105369
      6044.72       1.1738844     0.010117231
      6050.76       1.1412391     0.010128925
      6056.81       1.1109261     0.010140580
      6062.87       1.0860941     0.010152197
      6068.93       1.0708167     0.010164194
      6075.00       1.0647740     0.010175727
      6081.08       1.0677106     0.010187414
      6087.16       1.0907037     0.010199090
      6093.25       1.1201844     0.010210648
      6099.34       1.1491430     0.010222451
      6105.44       1.1743021     0.010145497
      6111.54       1.1979996     0.010158478
      6117.66       1.2105100     0.010175767
      6123.78       1.2152809     0.010193366
      6129.90       1.2070838     0.010208014
      6136.03       1.1875960     0.010232930
      6142.17       1.1556552     0.010273361
      6148.31       1.1299114     0.010422815
      6154.46       1.0996563     0.010388098
      6160.61       1.0789884     0.010434601
      6166.77       1.0555916     0.010468056
      6172.94       1.0506557     0.010484030
      6179.11       1.0565352     0.010482908
      6185.29       1.0696945     0.010470045
      6191.48       1.0890074     0.010356288
      6197.67       1.1246467     0.010347775
      6203.87       1.1556300     0.010435469
      6210.07       1.1888657     0.010424837
      6216.28       1.2098558     0.010420481
      6222.50       1.2382209     0.010420049
      6228.72       1.2512630     0.010328120
      6234.95       1.2490264     0.010329131
      6241.19       1.2343944     0.010331584
      6247.42       1.2175598     0.010433092
      6253.67       1.1902992     0.010438457
      6259.93       1.1621404     0.010353063
      6266.19       1.1315509     0.010357100
      6272.46       1.1074168     0.010362501
      6278.73       1.0825616     0.010368693
      6285.01       1.0565421     0.010288800
      6291.29       1.0395937     0.010391141
      6297.58       1.0310365     0.010397949
      6303.88       1.0302720     0.010405982
      6310.19       1.0257062     0.010328916
      6316.50       1.0332973     0.010340631
      6322.81       1.0370127     0.010447395
      6329.14       1.0306742     0.010461426
      6335.47       1.0232264     0.010393199
      6341.80       1.0101027     0.010415031
      6348.14      0.99758402     0.010438683
      6354.49      0.98119755     0.010551650
      6360.85      0.96170192     0.010472754
      6367.21      0.95365659     0.010478286
      6373.57      0.95517061     0.010483376
      6379.95      0.95826858     0.010487926
      6386.33      0.96258943     0.010490928
      6392.72      0.97897714     0.010495789
      6399.11      0.99563466     0.010409351
      6405.51       1.0056404     0.010506541
      6411.92       1.0136072     0.010510163
      6418.32       1.0184852     0.010514218
      6424.74       1.0240593     0.010425661
      6431.17       1.0322671     0.010527365
      6437.60       1.0393890     0.010534037
      6444.04       1.0558893     0.010442519
      6450.48       1.0755850     0.010535100
      6456.94       1.0827614     0.010534753
      6463.39       1.0841298     0.010442672
      6469.85       1.0761863     0.010442149
      6476.33       1.0545369     0.010451324
      6482.80       1.0252324     0.010451814
      6489.28      0.98120405     0.010454810
      6495.77      0.92120277     0.010467039
      6502.27      0.86139294     0.010468821
      6508.77      0.80188049     0.010472111
      6515.28      0.75403222     0.010483391
      6521.80      0.73217460     0.010485014
      6528.32      0.72101417     0.010403167
      6534.85      0.73105882     0.010498382
      6541.38      0.76785035     0.010499909
      6547.92      0.82125791     0.010417861
      6554.47      0.88540457     0.010511553
      6561.03      0.96345324     0.010427460
      6567.59       1.0478820     0.010431669
      6574.16       1.1366029     0.010523148
      6580.73       1.2190504     0.010439605
      6587.31       1.3038507     0.010532713
      6593.90       1.3816832     0.010447723
      6600.50       1.4571163     0.010451267
      6607.10       1.5100233     0.010455179
      6613.70       1.5498617     0.010457429
      6620.32       1.5970089     0.010462494
      6626.94       1.6239596     0.010463200
      6633.57       1.6336623     0.010377824
      6640.20       1.6376599     0.010468453
      6646.84       1.6384422     0.010471121
      6653.49       1.6388444     0.010473128
      6660.14       1.6372400     0.010474704
      6666.80       1.6478493     0.010386316
      6673.47       1.6532150     0.010477660
      6680.14       1.6574701     0.010389724
      6686.82       1.6445105     0.010484540
      6693.51       1.6175175     0.010423184
      6700.20       1.6045378     0.010558285
      6706.90       1.5681087     0.010478346
      6713.61       1.5165869     0.010621101
      6720.32       1.4729880     0.010711537
      6727.05       1.4395578     0.010873345
      6733.77       1.4051610     0.011261856
      6740.51       1.3878008     0.011432423
      6747.25       1.3837434     0.011753547
      6754.00       1.3794727     0.011734174
      6760.75       1.3775350     0.011785202
      6767.51       1.3732869     0.011529623
      6774.28       1.3617210     0.011408395
      6781.05       1.3555748     0.011159861
      6787.84       1.3476443     0.011013426
      6794.62       1.3225873     0.010879926
      6801.42       1.3014322     0.010755999
      6808.22       1.2839776     0.010696138
      6815.03       1.2637332     0.010629206
      6821.85       1.2376185     0.010655224
      6828.67       1.2181344     0.010511506
      6835.50       1.1839462     0.010461086
      6842.33       1.1462704     0.010432829
      6849.17       1.1060570     0.010416023
      6856.02       1.0586579     0.010413050
      6862.88       1.0041025     0.010414330
      6869.74      0.93643976     0.010332574
      6876.61      0.87897416     0.010414130
      6883.49      0.81084136     0.010399512
      6890.37      0.76133814     0.010296656
      6897.27      0.71834083     0.010363999
      6904.16      0.68539996     0.010260419
      6911.07      0.68055174     0.010241591
      6917.98      0.69683040     0.010220133
      6924.89      0.73776314     0.010201855
      6931.82      0.80259015     0.010186734
      6938.75      0.87332271     0.010166647
      6945.69      0.95138144     0.010149393
      6952.64       1.0378346     0.010135862
      6959.59       1.1173225     0.010117951
      6966.55       1.1973610     0.010106772
      6973.52       1.2662975     0.010015440
      6980.49       1.3238440     0.010085472
      6987.47       1.3685732     0.010087597
      6994.46       1.4160607     0.010017866
      7001.46       1.4522762     0.010105716
      7008.46       1.4880509     0.010141260
      7015.46       1.5051051     0.010121602
      7022.48       1.5134322     0.010228391
      7029.51       1.5044610     0.010444210
      7036.53       1.4893930     0.010507323
      7043.57       1.4645844     0.010670770
      7050.62       1.4488146     0.010784378
      7057.66       1.4303021     0.010807023
      7064.72       1.4072610     0.010740639
      7071.79       1.3982242     0.010622814
      7078.86       1.3817498     0.010441850
      7085.94       1.3636017     0.010469394
      7093.03       1.3408846     0.010453944
      7100.12       1.3034216     0.010472534
      7107.22       1.2578861     0.010414839
      7114.33       1.2008775     0.010425926
      7121.44       1.1448314     0.010482744
      7128.56       1.0920912     0.010435534
      7135.69       1.0644949     0.010304719
      7142.83       1.0429878     0.010262780
      7149.97       1.0261503     0.010218017
      7157.12       1.0283744     0.010241368
      7164.28       1.0421981     0.010092710
      7171.44       1.0592803     0.010009871
      7178.62       1.0882687    0.0099223642
      7185.80       1.1044966    0.0098323185
      7192.98       1.1147994    0.0096744964
      7200.17       1.1131669    0.0096776625
      7207.38       1.1038038    0.0096180339
      7214.58       1.0903371    0.0095724080
      7221.80       1.0764649    0.0095340235
      7229.02       1.0650266    0.0094240329
      7236.25       1.0558761    0.0093845439
      7243.49       1.0571398    0.0093454324
      7250.73       1.0664783    0.0093060962
      7257.98       1.0893295    0.0093420671
      7265.24       1.1163414    0.0092382685
      7272.51       1.1428737    0.0092028048
      7279.78       1.1660739    0.0091679432
      7287.06       1.1794999    0.0091344898
      7294.35       1.1835582    0.0091036922
      7301.64       1.1897998    0.0090740878
      7308.94       1.1831115    0.0089768624
      7316.25       1.1683682    0.0089484717
      7323.57       1.1438296    0.0089210957
      7330.89       1.1165090    0.0088940023
      7338.22       1.0836798    0.0089366602
      7345.56       1.0518395    0.0089084246
      7352.91       1.0194971    0.0088798761
      7360.26      0.98723942    0.0088511243
      7367.62      0.96203234    0.0088219966
      7374.99      0.94882641    0.0087264082
      7382.37      0.93054193    0.0086969598
      7389.75      0.93385728    0.0086680302
      7397.14      0.93427294    0.0086519280
      7404.53      0.93478028    0.0086876599
      7411.94      0.95647120    0.0087798700
      7419.35      0.98081835    0.0088327102
      7426.77      0.98459392    0.0088802607
      7434.20      0.98867552    0.0092673098
      7441.63       1.0044754    0.0099930701
      7449.07       1.0127816     0.010981718
      7456.52       1.0169143     0.012176412
      7463.98       1.0140167     0.013411986
      7471.45       1.0040377     0.014339549
      7478.92       1.0002954     0.014573340
      7486.40       1.0017932     0.014041762
      7493.88       1.0109275     0.013077025
      7501.38       1.0281904     0.012028232
      7508.88       1.0455146     0.010887548
      7516.39       1.0394132     0.010068029
      7523.91       1.0294578    0.0093718679
      7531.43       1.0384045    0.0088558821
      7538.96       1.0250923    0.0085042253
      7546.50       1.0016219    0.0082446661
      7554.05      0.97781650    0.0080835180
      7561.60      0.95809001    0.0079414393
      7569.16      0.91762591    0.0078358307
      7576.73      0.88779754    0.0077550743
      7584.31      0.85738142    0.0076905989
      7591.89      0.82360564    0.0076361539
      7599.49      0.78679419    0.0075280808
      7607.09      0.75689991    0.0074808346
      7614.70      0.73768155    0.0074348811
      7622.31      0.71646545    0.0073898175
      7629.93      0.69668251    0.0073449890
      7637.56      0.68898529    0.0072998936
      7645.20      0.69393969    0.0072543364
      7652.85      0.70885761    0.0071526757
      7660.50      0.72850884    0.0071067209
      7668.16      0.75634739    0.0070605890
      7675.83      0.78150893    0.0070610952
      7683.50      0.80576455    0.0070125334
      7691.19      0.83603171    0.0069645225
      7698.88      0.87098032    0.0068642003
      7706.58      0.90141257    0.0068179914
      7714.29      0.93041811    0.0067735674
      7722.00      0.94315013    0.0067312934
      7729.73      0.96538398    0.0066900626
      7737.45      0.98097325    0.0065937638
      7745.19      0.99439545    0.0065923484
      7752.94      0.99644856    0.0065437110
      7760.69       1.0075884    0.0064917817
      7768.45       1.0080611    0.0064349991
      7776.22       1.0078209    0.0063213801
      7784.00       1.0059325    0.0062627152
      7791.78       1.0010511    0.0062485435
      7799.57      0.99169837    0.0061955342
      7807.37      0.97715232    0.0060930140
      7815.18      0.96666620    0.0060379558
      7822.99      0.95191192    0.0059822975
      7830.82      0.94685952    0.0059638943
      7838.65      0.93683614    0.0058571623
      7846.49      0.93276304    0.0057979182
      7854.34      0.94510494    0.0057403356
      7862.19      0.95431051    0.0056378604
      7870.05      0.96121896    0.0056121589
      7877.93      0.96937364    0.0055472024
      7885.80      0.97826422    0.0054364308
      7893.69      0.98191748    0.0053699936
      7901.58      0.98785046    0.0053349572
      7909.49      0.98923907    0.0052265677
      7917.40      0.98716053    0.0051639319
      7925.31      0.99362494    0.0051059822
      7933.24      0.99322444    0.0053237977
      7941.17      0.99089146    0.0055933561
      7949.11      0.98988323    0.0061438303
      7957.06      0.98147743    0.0071630907
      7965.02      0.96463424    0.0090360718
      7972.98      0.94752337     0.013886538
