# starting wavelength =        5745.9300
# ending wavelength =        9131.4300
# O2 telluric scale =        0
# O2 telluric shift =        0
# H2O telluric scale =        0
# H2O telluric shift =        0
      5750.04      0.51795008      0.38577625
      5755.79      0.52191243      0.32777545
      5761.55      0.46795935      0.28153355
      5767.31      0.47264663      0.24495366
      5773.08      0.49929024      0.21386371
      5778.85      0.55098407      0.19216868
      5784.63      0.58087556      0.17541702
      5790.41      0.61441665      0.16260292
      5796.21      0.68557023      0.15352694
      5802.00      0.72371388      0.14571005
      5807.81      0.79263037      0.13965028
      5813.61      0.88103620      0.13489432
      5819.43      0.98101172      0.13060541
      5825.25       1.0294014      0.12756513
      5831.07       1.0385607      0.12505138
      5836.90       1.0444420      0.12262917
      5842.74       1.0905576      0.12078956
      5848.58       1.0734655      0.12012257
      5854.43       1.0744847      0.12040968
      5860.29       1.0779947      0.12030498
      5866.15       1.1734538      0.12061714
      5872.01       1.2121150      0.12094309
      5877.89       1.2124101      0.12086768
      5883.76       1.2335826      0.12119330
      5889.65       1.2387152      0.12153017
      5895.54       1.2262962      0.12147013
      5901.43       1.1463246      0.12184170
      5907.34       1.1091141      0.12221989
      5913.24       1.0402140      0.12219956
      5919.16      0.97951598      0.12263742
      5925.08      0.98296371      0.12308301
      5931.00      0.85515683      0.12309656
      5936.93      0.83832826      0.12356966
      5942.87      0.80704230      0.12406721
      5948.81      0.79102023      0.12412487
      5954.76      0.75681419      0.12465171
      5960.72      0.70258839      0.12519955
      5966.68      0.60438503      0.12529189
      5972.64      0.57132694      0.12586284
      5978.62      0.57967432      0.12645416
      5984.60      0.51179576      0.12657264
      5990.58      0.47061898      0.12720057
      5996.57      0.41451148      0.12784988
      6002.57      0.30937466      0.12799767
      6008.57      0.27996247      0.12867531
      6014.58      0.19866499      0.12937682
      6020.60      0.22218993      0.12956240
      6026.62      0.15429823      0.13030603
      6032.65      0.16538412      0.13049986
      6038.68      0.11589642      0.13180581
      6044.72     0.017650488      0.13262324
      6050.76     0.022176226      0.13287024
      6056.81   -0.0085339915      0.13372471
      6062.87    0.0090556058      0.13461176
      6068.93     0.069970273      0.13490403
      6075.00      0.12542012      0.13644457
      6081.08      0.19025081      0.13676369
      6087.16      0.23781241      0.13713625
      6093.25      0.28261622      0.13682225
      6099.34      0.26235337      0.13656525
      6105.44      0.27569633      0.13635814
      6111.54      0.32689170      0.13548634
      6117.66      0.27901616      0.13580353
      6123.78      0.32532466      0.13493730
      6129.90      0.31404498      0.13480252
      6136.03      0.22355871      0.13536240
      6142.17      0.20551963      0.13474259
      6148.31      0.31007348      0.13479118
      6154.46      0.45113841      0.13424177
      6160.61      0.65595136      0.13491411
      6166.77      0.95012037      0.13491367
      6172.94       1.4066428      0.13419314
      6179.11       1.8517538      0.13464735
      6185.29       2.3948933      0.13371859
      6191.48       3.0656246      0.13335216
      6197.67       3.8471652      0.13287173
      6203.87       4.7788776      0.13240175
      6210.07       5.5473175      0.13195506
      6216.28       6.2427420      0.13152238
      6222.50       6.8264434      0.13121499
      6228.72       7.2883493      0.13029323
      6234.95       7.5910030      0.13052296
      6241.19       7.8682971      0.12962050
      6247.42       7.9767178      0.12993414
      6253.67       8.1036730      0.12906996
      6259.93       8.1886942      0.12884019
      6266.19       8.2411148      0.12858092
      6272.46       8.2330180      0.12837653
      6278.73       8.1115325      0.12757615
      6285.01       7.9735420      0.12797647
      6291.29       7.6896390      0.12721301
      6297.58       7.4098903      0.12764194
      6303.88       7.1279619      0.12690275
      6310.19       6.9497717      0.12734382
      6316.50       6.6942641      0.12663738
      6322.81       6.4457509      0.12597391
      6329.14       6.0862949      0.12648669
      6335.47       5.5870166      0.12590479
      6341.80       5.1137164      0.12646220
      6348.14       4.6312036      0.12585295
      6354.49       4.1943102      0.12638502
      6360.85       3.9214278      0.12577166
      6367.21       3.5511749      0.12571749
      6373.57       3.2602841      0.12564080
      6379.95       2.9639172      0.12552206
      6386.33       2.7243878      0.12540124
      6392.72       2.5268580      0.12524266
      6399.11       2.3685621      0.12454003
      6405.51       2.1460903      0.12497355
      6411.92       1.9604798      0.12430506
      6418.32       1.8147083      0.12477625
      6424.74       1.6879335      0.12412307
      6431.17       1.6762661      0.12401894
      6437.60       1.6272170      0.12390246
      6444.04       1.6606120      0.12377683
      6450.48       1.7591218      0.12312329
      6456.94       1.7521632      0.12357556
      6463.39       1.8914240      0.12348146
      6469.85       1.9728543      0.12282204
      6476.33       2.1273266      0.12326012
      6482.80       2.2203448      0.12264898
      6489.28       2.2152966      0.12258786
      6495.77       2.2122817      0.12200644
      6502.27       2.2934712      0.12251274
      6508.77       2.3357574      0.12248732
      6515.28       2.3356111      0.12192705
      6521.80       2.3389657      0.12245195
      6528.32       2.3310964      0.12243793
      6534.85       2.2755061      0.12188902
      6541.38       2.2620137      0.12189668
      6547.92       2.2682685      0.12188312
      6554.47       2.2753696      0.12189543
      6561.03       2.2347162      0.12191439
      6567.59       2.2795723      0.12139448
      6574.16       2.2948776      0.12193460
      6580.73       2.3057484      0.12196458
      6587.31       2.3184071      0.12145965
      6593.90       2.3367737      0.12149101
      6600.50       2.3533238      0.12152925
      6607.10       2.2962221      0.12156176
      6613.70       2.2505689      0.12160071
      6620.32       2.1354329      0.12164820
      6626.94       2.0963780      0.12116283
      6633.57       2.0343270      0.12122313
      6640.20       2.0014044      0.12180434
      6646.84       1.9629450      0.12186586
      6653.49       1.8812291      0.12139318
      6660.14       1.7190357      0.12146712
      6666.80       1.7018346      0.12155985
      6673.47       1.6307843      0.12178672
      6680.14       1.5229672      0.12178436
      6686.82       1.4587925      0.12263381
      6693.51       1.4395946      0.12261135
      6700.20       1.3774119      0.12275611
      6706.90       1.2829973      0.12288205
      6713.61       1.1299654      0.12400440
      6720.32       1.0025470      0.12556042
      6727.05      0.85672327      0.12748427
      6733.77      0.71718464      0.12963172
      6740.51      0.55185694      0.13107545
      6747.25      0.53893779      0.13298402
      6754.00      0.46969729      0.13495283
      6760.75      0.50590095      0.13583170
      6767.51      0.66643767      0.13596908
      6774.28      0.58384879      0.13477731
      6781.05      0.55220638      0.13365955
      6787.84      0.55535797      0.13221498
      6794.62      0.55365051      0.13073308
      6801.42      0.60344653      0.12955364
      6808.22      0.60460261      0.12893582
      6815.03      0.60546721      0.12837313
      6821.85      0.55929262      0.12706011
      6828.67      0.55892049      0.12644164
      6835.50      0.48300115      0.12614033
      6842.33      0.44416982      0.12588964
      6849.17      0.48013320      0.12569886
      6856.02      0.44654109      0.12561115
      6862.88      0.52041093      0.12562613
      6869.74      0.49158229      0.12572761
      6876.61      0.61661758      0.12588053
      6883.49      0.56476748      0.12550450
      6890.37      0.71665690      0.12564032
      6897.27      0.80339798      0.12574205
      6904.16      0.77183548      0.12579278
      6911.07      0.78752312      0.12531494
      6917.98      0.76599136      0.12536283
      6924.89      0.70823389      0.12544893
      6931.82      0.66644597      0.12554735
      6938.75      0.66576984      0.12564026
      6945.69      0.62045700      0.12574346
      6952.64      0.56814076      0.12587513
      6959.59      0.52144960      0.12602920
      6966.55      0.51143372      0.12623461
      6973.52      0.54930420      0.12652551
      6980.49      0.58420921      0.12638012
      6987.47      0.44125795      0.12673450
      6994.46      0.49394464      0.12713232
      7001.46      0.47602593      0.12762456
      7008.46      0.58427335      0.12830894
      7015.46      0.57789198      0.12923437
      7022.48      0.69504597      0.13050051
      7029.51      0.77671480      0.13167815
      7036.53       1.0151149      0.13341587
      7043.57       1.1582015      0.13503643
      7050.62       1.3344114      0.13637006
      7057.66       1.3802995      0.13806595
      7064.72       1.5536219      0.13821630
      7071.79       1.7853886      0.13864854
      7078.86       2.0068227      0.13884339
      7085.94       2.1082000      0.13882107
      7093.03       2.3557246      0.13876248
      7100.12       2.4962167      0.13823618
      7107.22       2.4278632      0.13849562
      7114.33       2.3872094      0.13891202
      7121.44       2.3436457      0.13935787
      7128.56       2.3563242      0.13982583
      7135.69       2.3917878      0.14003152
      7142.83       2.2615544      0.14001140
      7149.97       2.0138880      0.13976353
      7157.12       1.9657892      0.13889224
      7164.28       2.0202302      0.13864737
      7171.44       2.2481823      0.13896533
      7178.62       2.4674063      0.13805266
      7185.80       2.8020523      0.13762226
      7192.98       3.0931040      0.13719510
      7200.17       3.6352455      0.13623928
      7207.38       4.2673476      0.13649182
      7214.58       4.9582156      0.13630119
      7221.80       5.6472138      0.13562672
      7229.02       6.3279398      0.13559686
      7236.25       6.8105261      0.13565125
      7243.49       7.3108334      0.13579111
      7250.73       7.7905293      0.13589599
      7257.98       8.0758480      0.13598276
      7265.24       8.1738758      0.13556688
      7272.51       8.2334159      0.13625049
      7279.78       7.9703328      0.13590461
      7287.06       7.6302904      0.13611165
      7294.35       7.4024344      0.13635202
      7301.64       7.0121631      0.13664855
      7308.94       6.6768047      0.13691183
      7316.25       6.2819805      0.13667852
      7323.57       5.8870534      0.13754945
      7330.89       5.4382948      0.13786732
      7338.22       5.0360431      0.13767164
      7345.56       4.6303709      0.13857598
      7352.91       4.2955949      0.13840674
      7360.26       3.9537064      0.13874801
      7367.62       3.5545206      0.13917603
      7374.99       3.2024800      0.13957421
      7382.37       2.9785737      0.13994297
      7389.75       2.7594276      0.14206191
      7397.14       2.5082307      0.14370771
      7404.53       2.3496434      0.14447701
      7411.94       2.2407209      0.14431183
      7419.35       2.0127540      0.14582111
      7426.77       1.8761935      0.14994370
      7434.20       1.7953186      0.15540733
      7441.63       1.7029015      0.16314667
      7449.07       1.5655932      0.17343435
      7456.52       1.4507865      0.18444960
      7463.98       1.3010339      0.19729791
      7471.45       1.1379898      0.20807307
      7478.92      0.94007165      0.21573420
      7486.40      0.68724847      0.22203860
      7493.88      0.49268870      0.22005160
      7501.38      0.21049216      0.21548126
      7508.88     0.060395836      0.20538303
      7516.39    -0.095803632      0.19389028
      7523.91    0.0069003769      0.18416771
      7531.43    -0.076297528      0.17460276
      7538.96    -0.052592504      0.16851552
      7546.50   -0.0055295735      0.16253462
      7554.05     0.033635317      0.15770053
      7561.60      0.10050354      0.15569216
      7569.16      0.12028746      0.15389275
      7576.73      0.25658439      0.15268648
      7584.31      0.28957007      0.15180965
      7591.89      0.33718065      0.15115870
      7599.49      0.40880038      0.15030423
      7607.09      0.54147382      0.15082327
      7614.70      0.67633351      0.15040702
      7622.31      0.66219774      0.15069773
      7629.93      0.63746517      0.15160555
      7637.56      0.62097727      0.15141860
      7645.20      0.41317665      0.15186434
      7652.85      0.43340752      0.15227346
      7660.50      0.47118425      0.15275018
      7668.16      0.46448297      0.15262168
      7675.83      0.31794579      0.15312136
      7683.50      0.39367814      0.15416015
      7691.19      0.37305856      0.15403651
      7698.88      0.38628089      0.15456254
      7706.58      0.38882155      0.15513027
      7714.29      0.33511323      0.15561083
      7722.00      0.36313870      0.15621678
      7729.73      0.33444496      0.15685867
      7737.45      0.41746501      0.15688661
      7745.19      0.36180694      0.15753541
      7752.94      0.37964984      0.15804019
      7760.69      0.31748797      0.15856702
      7768.45      0.29001448      0.15907916
      7776.22     0.069562308      0.15958226
      7784.00     0.046069501      0.15944467
      7791.78     0.010904629      0.15993425
      7799.57      0.30484353      0.16096770
      7807.37      0.46124261      0.16082088
      7815.18      0.36254794      0.16133675
      7822.99      0.30332494      0.16189234
      7830.82      0.40580093      0.16245081
      7838.65      0.38647941      0.16235399
      7846.49      0.36991423     -0.16290355
      7854.34      0.25503749     -0.16344160
      7862.19      0.15314144     -0.16450365
      7870.05     0.022785233     -0.16434522
      7877.93    -0.089382075     -0.16481686
      7885.80     -0.17344118      0.16530954
      7893.69     -0.16234721     -0.16580680
      7901.58     -0.13762124     -0.16627445
      7909.49     -0.16272206     -0.16614269
      7917.40    -0.078520296     -0.16672946
      7925.31     -0.10139010     -0.16740127
      7933.24     0.039615396     -0.16821808
      7941.17     0.081948143     -0.16918598
      7949.11      0.23858953     -0.17029165
      7957.06      0.22526847     -0.17093169
      7965.02      0.15819534     -0.17258332
      7972.98      0.14145856     -0.17452556
      7980.96      0.13720423      0.17663748
      7988.94      0.15838230      0.17893133
      7996.93      0.18490164      0.18142345
      8004.93     0.094863040      0.18377137
      8012.93     0.066637316      0.18448083
      8020.95    -0.039027628      0.18538599
      8028.97    -0.032732398      0.18611901
      8036.99    -0.032214949      0.18669201
      8045.03     0.091294394      0.18707379
      8053.08      0.15156915      0.18731705
      8061.13      0.17947868      0.18738087
      8069.20      0.25469249      0.18732847
      8077.26      0.27447693      0.18729970
      8085.34      0.24983382      0.18677025
      8093.43      0.21657729      0.18699091
      8101.52      0.16846771      0.18707333
      8109.62     0.071879077      0.18707494
      8117.73      0.10433114      0.18701204
      8125.85    -0.037516159      0.18689606
      8133.98     -0.20078925      0.18674792
      8142.11     -0.37522256      0.18678351
      8150.25     -0.35532415      0.18656523
      8158.41     -0.35376085      0.18697540
      8166.56     -0.43673797      0.18671957
      8174.73     -0.52996020      0.18618896
      8182.91     -0.42676633     -0.18582237
      8191.09     -0.44131349     -0.18489871
      8199.28     -0.34686756     -0.18470892
      8207.48     -0.41454082     -0.18465310
      8215.69     -0.28261292     -0.18456509
      8223.91     -0.21337596     -0.18447753
      8232.13    -0.031575773      0.18383912
      8240.36    -0.055937681      0.18395309
      8248.60      0.17875034      0.18482876
      8256.85      0.29427001      0.18504449
      8265.11      0.38605709      0.18467536
      8273.37      0.62916727      0.18494197
      8281.65      0.58910963      0.18526057
      8289.93      0.69568208      0.18562250
      8298.22      0.76477062      0.18539801
      8306.52       1.0261424      0.18581279
      8314.83       1.1276594      0.18691084
      8323.14       1.0460781      0.18674539
      8331.46       1.0437273      0.18721373
      8339.80       1.0709636      0.18769993
      8348.13      0.96657857      0.18756596
      8356.48      0.90307007      0.18803237
      8364.84      0.72668092      0.18919330
      8373.21      0.73851160      0.18902248
      8381.58      0.60951541      0.18943780
      8389.96      0.51773447      0.18984516
      8398.35      0.34153466      0.19032199
      8406.75      0.38141810      0.19071313
      8415.16      0.36770467      0.19111257
      8423.57      0.36970922      0.19091806
      8432.00      0.48361902      0.19132821
      8440.43      0.46563666      0.19178092
      8448.87      0.59086414      0.19219028
      8457.32      0.72601465      0.19200096
      8465.78      0.85266903      0.19314733
      8474.25      0.84713810      0.19360671
      8482.72      0.86443372      0.19343598
      8491.20      0.89915927      0.19388779
      8499.69      0.93058099      0.19441743
      8508.19      0.93776218      0.19485394
      8516.70      0.83540428      0.19466678
      8525.22      0.86695706      0.19577391
      8533.75      0.60821474      0.19555840
      8542.28      0.29128797      0.19596173
      8550.82      0.15371107      0.19641212
      8559.37     0.098874294      0.19680761
      8567.93      0.17666664      0.19726802
      8576.50      0.26390185      0.19767928
      8585.08      0.36484401      0.19746830
      8593.66      0.17819039      0.19858978
      8602.26      0.37824244      0.19837363
      8610.86      0.62836409      0.19950958
      8619.47      0.81133162      0.19931530
      8628.09      0.78127785      0.19911783
      8636.72       1.0575751      0.20024287
      8645.36       1.2231016      0.20003990
      8654.00       1.2876915      0.20116249
      8662.66       1.4036385      0.20096160
      8671.32       1.3603191      0.20146202
      8679.99      0.98839260      0.20191329
      8688.67       1.1458360      0.20245126
      8697.36      0.96897142      0.20293158
      8706.06      0.73927936      0.20356488
      8714.76      0.92419189      0.20358101
      8723.48      0.84131376      0.20499343
      8732.21      0.93958304      0.20509879
      8740.93      0.77651829      0.20631179
      8749.68      0.68311034      0.20757793
      8758.43      0.55327930      0.20931310
      8767.19       1.0039294      0.21076515
      8775.96       1.1528094      0.21358633
      8784.73       1.1314464      0.21637208
      8793.52       1.1692238      0.21984856
      8802.31       1.1614263      0.21969258
      8811.11       1.1658143      0.22017015
      8819.92      0.92275839      0.22052956
      8828.75      0.79880700      0.21854003
      8837.57      0.64428949      0.21657178
      8846.41      0.56340432      0.21353539
      8855.26      0.37527895      0.21164666
      8864.12      0.17283314      0.20944289
      8872.98      0.25844387      0.20669561
      8881.85      0.39953438      0.20464477
      8890.73      0.36177911      0.20224668
      8899.63      0.37431204      0.20074646
      8908.52      0.50892314      0.19938027
      8917.43      0.57483172      0.19809269
      8926.35      0.68193359      0.19716667
      8935.28      0.77757831      0.19579102
      8944.22      0.83600283      0.19495595
      8953.16      0.88269537      0.19400262
      8962.11       1.0143891      0.19219533
      8971.08       1.2201959      0.19061752
      8980.05       1.2719427      0.18876094
      8989.03       1.2698981      0.18730553
      8998.02       1.3186560      0.18918909
      9007.02       1.3199036      0.19173254
      9016.02       1.3443748      0.19514264
      9025.04       1.3376144      0.19951159
      9034.07       1.3342706      0.20470953
      9043.10       1.2997155      0.21228801
      9052.14       1.1917745      0.22313353
      9061.20       1.2104488      0.23719188
      9070.26       1.1959829      0.25591987
      9079.33       1.1759759      0.27893263
      9088.41       1.1340087      0.31057930
      9097.50       1.0750621      0.35159185
      9106.60       1.0542918      0.40775658
      9115.70       1.0287500      0.47500017
      9124.82       1.0018501      0.55305613
