# starting wavelength =        3766.5500
# ending wavelength =        9814.3800
# O2 telluric scale =       0.68341567
# O2 telluric shift =       0.50991566
# H2O telluric scale =        0
# H2O telluric shift =        0
      3767.45      0.75867058     0.035286049
      3771.22      0.81124332     0.029698281
      3774.99      0.82640694     0.025508422
      3778.77      0.83343293     0.021932321
      3782.54      0.83365575     0.019251183
      3786.33      0.83187192     0.017244937
      3790.11      0.83802864     0.015543528
      3793.90      0.84137591     0.014288580
      3797.70      0.85823007     0.013343724
      3801.50      0.88471881     0.012545792
      3805.30      0.90086369     0.011940481
      3809.10      0.91868509     0.011476138
      3812.91      0.94537893     0.011076985
      3816.73      0.96198012     0.010746363
      3820.54      0.98926683     0.010470235
      3824.36       1.0290992     0.010246722
      3828.19       1.0604024     0.010046792
      3832.02       1.1023358    0.0098644024
      3835.85       1.1443125    0.0097139025
      3839.68       1.1879894    0.0096043287
      3843.52       1.2290645    0.0095861262
      3847.37       1.2772980    0.0095654639
      3851.22       1.3477792    0.0095473392
      3855.07       1.4220803    0.0095267275
      3858.92       1.4965597    0.0095180856
      3862.78       1.5846245    0.0094881122
      3866.64       1.6799788    0.0094676364
      3870.51       1.7647397    0.0094591040
      3874.38       1.8631943    0.0094292387
      3878.26       1.9486079    0.0094207686
      3882.13       2.0370229    0.0094004131
      3886.02       2.1295793    0.0093706186
      3889.90       2.2298176    0.0093622427
      3893.79       2.3091042    0.0093419828
      3897.69       2.3960731    0.0093337167
      3901.59       2.4793648    0.0093040477
      3905.49       2.5492506    0.0092838649
      3909.39       2.6018991    0.0092756825
      3913.30       2.6588092    0.0092556390
      3917.22       2.7154131    0.0092356085
      3921.13       2.7647967    0.0092275450
      3925.06       2.8087199    0.0092075709
      3928.98       2.8496296    0.0091780677
      3932.91       2.8796957    0.0091581319
      3936.84       2.9197670    0.0091502234
      3940.78       2.9474520    0.0091304103
      3944.72       2.9521783    0.0091105808
      3948.67       2.9658687    0.0090908336
      3952.61       2.9693369    0.0090831321
      3956.57       2.9706131    0.0090633734
      3960.52       2.9671980    0.0090437270
      3964.48       2.9597262    0.0090240544
      3968.45       2.9482439    0.0090044578
      3972.42       2.9477092    0.0089970357
      3976.39       2.9463986    0.0089774467
      3980.37       2.9378227    0.0089579804
      3984.35       2.9379012    0.0089384397
      3988.33       2.9281785    0.0089287973
      3992.32       2.9288662    0.0089093631
      3996.31       2.9262068    0.0088900396
      4000.31       2.9187283    0.0088707114
      4004.31       2.9138730    0.0088636263
      4008.31       2.8915913    0.0088442815
      4012.32       2.8797590    0.0088251458
      4016.33       2.8662966    0.0088157673
      4020.35       2.8374719    0.0087965892
      4024.37       2.8005910    0.0087775291
      4028.40       2.7604573    0.0087584004
      4032.42       2.7076948    0.0087492776
      4036.46       2.6717244    0.0087302924
      4040.50       2.6174582    0.0087112876
      4044.54       2.5700245    0.0087023529
      4048.58       2.5211534    0.0086834771
      4052.63       2.4685911    0.0086645765
      4056.68       2.4254329    0.0086557872
      4060.74       2.3878447    0.0086370466
      4064.80       2.3358125    0.0086182728
      4068.86       2.2817310    0.0086096468
      4072.93       2.2428831    0.0085785254
      4077.01       2.1941902    0.0085700364
      4081.08       2.1569556    0.0085514130
      4085.17       2.1155331    0.0085429851
      4089.25       2.0863546    0.0085244600
      4093.34       2.0667298    0.0085162038
      4097.43       2.0424546    0.0084977651
      4101.53       2.0229921    0.0084896403
      4105.63       2.0146818    0.0084586663
      4109.74       2.0024625    0.0084505911
      4113.85       2.0005055    0.0084322606
      4117.96       2.0012452    0.0084243241
      4122.08       2.0011564    0.0084165325
      4126.20       2.0120710    0.0083856680
      4130.33       2.0328261    0.0083779206
      4134.46       2.0494357    0.0083598245
      4138.59       2.0587247    0.0083522136
      4142.73       2.0702924    0.0083318920
      4146.88       2.0876216    0.0083138891
      4151.02       2.1088516    0.0083065045
      4155.18       2.1195067    0.0082991716
      4159.33       2.1281990    0.0082790501
      4163.49       2.1400838    0.0082612444
      4167.65       2.1478502    0.0082541224
      4171.82       2.1580803    0.0082340584
      4175.99       2.1642461    0.0082270525
      4180.17       2.1649677    0.0082071851
      4184.35       2.1633259    0.0081895545
      4188.54       2.1572750    0.0081827750
      4192.72       2.1575451    0.0081629562
      4196.92       2.1513137    0.0081563537
      4201.11       2.1481570    0.0081498329
      4205.31       2.1375501    0.0081301826
      4209.52       2.1302613    0.0081237716
      4213.73       2.1206678    0.0081041712
      4217.94       2.1095081    0.0080980026
      4222.16       2.1063542    0.0080785210
      4226.38       2.1012755    0.0080724535
      4230.61       2.1087068    0.0080530449
      4234.84       2.1165161    0.0080471904
      4239.08       2.1155615    0.0080279673
      4243.32       2.1094070    0.0080222251
      4247.56       2.1071846    0.0080030109
      4251.81       2.1066276    0.0079975278
      4256.06       2.1054090    0.0079783521
      4260.32       2.1004131    0.0079729533
      4264.58       2.1045816    0.0079539932
      4268.84       2.1057620    0.0079465909
      4273.11       2.0972357    0.0079415581
      4277.38       2.0887303    0.0079226533
      4281.66       2.0807148    0.0079177098
      4285.94       2.0795503    0.0078989733
      4290.23       2.0809519    0.0078920747
      4294.52       2.0781178    0.0078875066
      4298.81       2.0725196    0.0078688038
      4303.11       2.0745484    0.0078502865
      4307.42       2.0691027    0.0078580482
      4311.72       2.0637999    0.0078396315
      4316.04       2.0562334    0.0078211825
      4320.35       2.0504560    0.0078294029
      4324.67       2.0448809    0.0078111355
      4329.00       2.0304017    0.0077928985
      4333.33       2.0042387    0.0077870094
      4337.66       1.9766999    0.0077835779
      4342.00       1.9450468    0.0077779965
      4346.34       1.9049003    0.0077599663
      4350.69       1.8547477    0.0077546584
      4355.04       1.7979330    0.0077515589
      4359.39       1.7329116    0.0077338538
      4363.75       1.6621934    0.0077288116
      4368.12       1.6026327    0.0077239537
      4372.48       1.5448675    0.0077063313
      4376.86       1.4965545    0.0076607367
      4381.23       1.4515139    0.0076280268
      4385.61       1.4092655    0.0075955419
      4390.00       1.3825242    0.0075653416
      4394.39       1.3620284    0.0075329594
      4398.79       1.3646024    0.0074881339
      4403.18       1.3623506    0.0074560046
      4407.59       1.3719462    0.0074239932
      4412.00       1.3882799    0.0073798439
      4416.41       1.4066228    0.0073479972
      4420.82       1.4140454    0.0073162606
      4425.25       1.4366674    0.0072846697
      4429.67       1.4580894    0.0072411152
      4434.10       1.4773307    0.0072097590
      4438.54       1.4959734    0.0071785065
      4442.97       1.5115624    0.0071473455
      4447.42       1.5293749    0.0071045864
      4451.86       1.5457921    0.0070736588
      4456.32       1.5704406    0.0070427993
      4460.77       1.5970235    0.0070120282
      4465.24       1.6217920    0.0069678482
      4469.70       1.6438984    0.0069373225
      4474.17       1.6845699    0.0068955863
      4478.65       1.7202865    0.0068652814
      4483.12       1.7659906    0.0068350692
      4487.61       1.8024433    0.0068050032
      4492.09       1.8439214    0.0067618483
      4496.59       1.8924258    0.0067319349
      4501.08       1.9250767    0.0067021646
      4505.58       1.9635673    0.0066724116
      4510.09       2.0011154    0.0066301223
      4514.60       2.0417312    0.0066006485
      4519.12       2.0788335    0.0065712705
      4523.63       2.1118339    0.0065294972
      4528.16       2.1458383    0.0065003059
      4532.69       2.1807922    0.0064712760
      4537.22       2.2135062    0.0064299769
      4541.76       2.2507526    0.0064011814
      4546.30       2.2798158    0.0063725008
      4550.85       2.3037488    0.0063316669
      4555.40       2.3260600    0.0063031238
      4559.95       2.3463600    0.0062847784
      4564.51       2.3571665    0.0062444832
      4569.08       2.3639074    0.0062162215
      4573.65       2.3596792    0.0061763514
      4578.22       2.3506503    0.0061484008
      4582.80       2.3418919    0.0061185190
      4587.38       2.3228304    0.0060907036
      4591.97       2.3057292    0.0060514408
      4596.56       2.2881497    0.0060238322
      4601.16       2.2693327    0.0059850459
      4605.76       2.2570209    0.0059557775
      4610.37       2.2397367    0.0059284771
      4614.98       2.2209180    0.0058900993
      4619.59       2.2126714    0.0058722634
      4624.21       2.2033684    0.0058342098
      4628.84       2.1952001    0.0057964316
      4633.47       2.1900774    0.0057786732
      4638.10       2.1864146    0.0057411759
      4642.74       2.1765412    0.0057127558
      4647.38       2.1711690    0.0056862997
      4652.03       2.1644819    0.0056492161
      4656.68       2.1573394    0.0056212001
      4661.34       2.1425962    0.0055949701
      4666.00       2.1338140    0.0055671070
      4670.67       2.1244783    0.0055308058
      4675.33       2.1146819    0.0055031092
      4680.01       2.0971244    0.0054671310
      4684.69       2.0843933    0.0054498428
      4689.38       2.0680572    0.0054141101
      4694.07       2.0592281    0.0053868807
      4698.76       2.0380882    0.0053515639
      4703.46       2.0220289    0.0053245366
      4708.16       2.0110590    0.0052976517
      4712.87       1.9908365    0.0052627649
      4717.58       1.9746318    0.0052361115
      4722.30       1.9550418    0.0052112033
      4727.03       1.9273624    0.0051847241
      4731.75       1.9002388    0.0051583473
      4736.48       1.8685225    0.0051242968
      4741.22       1.8234978    0.0050980999
      4745.96       1.7724779    0.0050720064
      4750.71       1.7146855    0.0050460271
      4755.46       1.6591053    0.0050124818
      4760.22       1.5968401    0.0049775632
      4764.97       1.5341542    0.0049519757
      4769.74       1.4675905    0.0049264598
      4774.51       1.4060006    0.0048936273
      4779.29       1.3500209    0.0048683195
      4784.07       1.3016888    0.0048431290
      4788.85       1.2583703    0.0048180200
      4793.64       1.2236401    0.0047930009
      4798.43       1.2075161    0.0047593459
      4803.23       1.2004913    0.0047345454
      4808.03       1.2062320    0.0047028108
      4812.84       1.2174336    0.0046782183
      4817.66       1.2348794    0.0046537476
      4822.48       1.2614461    0.0046209326
      4827.30       1.2843473    0.0045967014
      4832.12       1.3038125    0.0045725248
      4836.96       1.3239828    0.0045484745
      4841.79       1.3428605    0.0045161902
      4846.63       1.3517219    0.0044923356
      4851.48       1.3522523    0.0044685405
      4856.33       1.3455035    0.0044368358
      4861.19       1.3311240    0.0044133028
      4866.05       1.3126926    0.0043883305
      4870.92       1.2933802    0.0043649531
      4875.79       1.2749978    0.0043416975
      4880.66       1.2567210    0.0043106608
      4885.55       1.2401661    0.0042875909
      4890.43       1.2397755    0.0042569545
      4895.32       1.2435982    0.0042341458
      4900.22       1.2563851    0.0042098976
      4905.12       1.2813668    0.0041872336
      4910.02       1.3172304    0.0041571494
      4914.94       1.3594231    0.0041346737
      4919.85       1.4074154    0.0041109205
      4924.77       1.4583184    0.0040813010
      4929.70       1.5083832    0.0040591603
      4934.62       1.5599862    0.0040298422
      4939.56       1.6056995    0.0040137055
      4944.50       1.6484134    0.0039846718
      4949.44       1.6898866    0.0039558375
      4954.39       1.7175773    0.0039398727
      4959.35       1.7430473    0.0039112815
      4964.31       1.7560866    0.0038828902
      4969.27       1.7574017    0.0038670880
      4974.24       1.7450438    0.0038389398
      4979.22       1.7204781    0.0038164384
      4984.20       1.6917286    0.0037886062
      4989.18       1.6503339    0.0037730270
      4994.17       1.6025182    0.0037454575
      4999.16       1.5514800    0.0037233500
      5004.16       1.4985941    0.0036960650
      5009.17       1.4425688    0.0036742471
      5014.18       1.3855054    0.0036472574
      5019.19       1.3376772    0.0036320361
      5024.21       1.2945567    0.0036053773
      5029.23       1.2610360    0.0035838838
      5034.26       1.2346923    0.0035624991
      5039.30       1.2215650    0.0035362057
      5044.34       1.2166808    0.0035150606
      5049.39       1.2191902    0.0034890918
      5054.43       1.2372821    0.0034681327
      5059.49       1.2567922    0.0034472630
      5064.55       1.2817517    0.0034265121
      5069.61       1.3139267    0.0034010780
      5074.68       1.3485175    0.0033805156
      5079.76       1.3877451    0.0033600662
      5084.84       1.4237396    0.0033351052
      5089.92       1.4628088    0.0033148679
      5095.01       1.4996505    0.0032889322
      5100.11       1.5321212    0.0032688982
      5105.21       1.5584539    0.0032489573
      5110.31       1.5813419    0.0032291189
      5115.42       1.6022337    0.0032049489
      5120.54       1.6169702    0.0031853284
      5125.66       1.6244337    0.0031602332
      5130.79       1.6268651    0.0031408040
      5135.92       1.6273806    0.0031214619
      5141.05       1.6220372    0.0031022062
      5146.20       1.6145908    0.0030777213
      5151.34       1.6061837    0.0030586768
      5156.49       1.5925739    0.0030397453
      5161.65       1.5807405    0.0030208998
      5166.81       1.5739076    0.0029969013
      5171.98       1.5716414    0.0029782716
      5177.15       1.5717021    0.0029545827
      5182.33       1.5756963    0.0029361599
      5187.51       1.5845913    0.0029178177
      5192.70       1.5964809    0.0028945047
      5197.89       1.6085288    0.0028763743
      5203.09       1.6270485    0.0028572549
      5208.29       1.6506565    0.0028392730
      5213.50       1.6715518    0.0028165236
      5218.72       1.6965667    0.0027987641
      5223.93       1.7213683    0.0027763075
      5229.16       1.7466129    0.0027587498
      5234.39       1.7702979    0.0027402454
      5239.62       1.7901644    0.0027228540
      5244.86       1.8072497    0.0027009195
      5250.11       1.8201545    0.0026791267
      5255.36       1.8311963    0.0026656130
      5260.61       1.8428782    0.0026440670
      5265.87       1.8526177    0.0026271662
      5271.14       1.8584166    0.0026093457
      5276.41       1.8599383    0.0025881945
      5281.69       1.8605250    0.0025671912
      5286.97       1.8576939    0.0025540840
      5292.26       1.8522240    0.0025333049
      5297.55       1.8429485    0.0025160054
      5302.85       1.8383017    0.0024955175
      5308.15       1.8268252    0.0024826480
      5313.46       1.8152355    0.0024624020
      5318.77       1.8044680    0.0024422874
      5324.09       1.7920151    0.0024254847
      5329.42       1.7775492    0.0024087981
      5334.75       1.7615973    0.0023890628
      5340.08       1.7455117    0.0023765793
      5345.42       1.7289573    0.0023571100
      5350.77       1.7117956    0.0023407758
      5356.12       1.6941561    0.0023215100
      5361.48       1.6772616    0.0023054031
      5366.83       1.6571536    0.0022893912
      5372.20       1.6386244    0.0022705325
      5377.58       1.6207877    0.0022547092
      5382.95       1.6068739    0.0022389761
      5388.34       1.5915774    0.0022204668
      5393.72       1.5809577    0.0022049395
      5399.12       1.5694949    0.0021895040
      5404.52       1.5625591    0.0021741504
      5409.92       1.5568906    0.0021525024
      5415.33       1.5552995    0.0021373768
      5420.75       1.5542683    0.0021223431
      5426.17       1.5554464    0.0021073958
      5431.60       1.5562939    0.0020925329
      5437.03       1.5575817    0.0020751431
      5442.47       1.5585295    0.0020570123
      5447.91       1.5585589    0.0020424501
      5453.36       1.5525651    0.0020279969
      5458.81       1.5464291    0.0020136225
      5464.27       1.5414891    0.0019959866
      5469.73       1.5339967    0.0019818115
      5475.20       1.5288827    0.0019677221
      5480.68       1.5232144    0.0019504581
      5486.16       1.5154453    0.0019365511
      5491.65       1.5064145    0.0019227342
      5497.14       1.5011089    0.0019058351
      5502.64       1.4932326    0.0018922107
      5508.14       1.4861023    0.0018786975
      5513.65       1.4813934    0.0018621382
      5519.16       1.4749206    0.0018487892
      5524.68       1.4650734    0.0018325080
      5530.20       1.4581648    0.0018216043
      5535.73       1.4498128    0.0018055371
      5541.27       1.4424501    0.0017925659
      5546.81       1.4335715    0.0017767200
      5552.36       1.4215401    0.0017639247
      5557.91       1.4096133    0.0017504902
      5563.47       1.4026797    0.0017350083
      5569.04       1.3938262    0.0017224966
      5574.60       1.3857805    0.0017072410
      5580.18       1.3787904    0.0016942152
      5585.76       1.3716954    0.0016819491
      5591.35       1.3631392    0.0016670610
      5596.94       1.3590000    0.0016543138
      5602.53       1.3565981    0.0016423374
      5608.14       1.3553257    0.0016277543
      5613.75       1.3533226    0.0016152905
      5619.36       1.3524583    0.0016009727
      5624.98       1.3493351    0.0015912826
      5630.60       1.3449237    0.0015771610
      5636.23       1.3425329    0.0015650533
      5641.87       1.3349395    0.0015511573
      5647.51       1.3276143    0.0015392576
      5653.16       1.3168608    0.0015255914
      5658.82       1.3029123    0.0015138733
      5664.47       1.2865530    0.0015028890
      5670.14       1.2659284    0.0014913320
      5675.81       1.2385367    0.0014798693
      5681.48       1.2072789    0.0014667273
      5687.17       1.1693792    0.0014554579
      5692.85       1.1272838    0.0014425524
      5698.55       1.0861709    0.0014314562
      5704.25       1.0432878    0.0014204640
      5709.95       1.0033036    0.0014079343
      5715.66      0.96829876    0.0013972866
      5721.38      0.93690620    0.0013845797
      5727.10      0.91732890    0.0013740962
      5732.83      0.90786294    0.0013620488
      5738.56      0.90401016    0.0013518190
      5744.30      0.91265695    0.0013419446
      5750.04      0.93132991    0.0013326055
      5755.79      0.96676099    0.0013215285
      5761.55       1.0130947    0.0013125702
      5767.31       1.0655516    0.0013021886
      5773.08       1.1264528    0.0012936539
      5778.85       1.1935776    0.0012830678
      5784.63       1.2623633    0.0012740413
      5790.41       1.3289099    0.0012647417
      5796.21       1.3931251    0.0012553672
      5802.00       1.4536539    0.0012439272
      5807.81       1.5096934    0.0012343573
      5813.61       1.5586196    0.0012227742
      5819.43       1.6002013    0.0012132113
      5825.25       1.6325887    0.0012038081
      5831.07       1.6589405    0.0011925805
      5836.90       1.6768318    0.0011832427
      5842.74       1.6839956    0.0011733398
      5848.58       1.6848474    0.0011639061
      5854.43       1.6829075    0.0011526843
      5860.29       1.6774355    0.0011434230
      5866.15       1.6718558    0.0011323666
      5872.01       1.6556264    0.0011213145
      5877.89       1.6388250    0.0011134608
      5883.76       1.6217011    0.0011029139
      5889.65       1.6052851    0.0010942878
      5895.54       1.5889376    0.0010839192
      5901.43       1.5747043    0.0010749447
      5907.34       1.5648794    0.0010666637
      5913.24       1.5561628    0.0010569439
      5919.16       1.5490660    0.0010485783
      5925.08       1.5410580    0.0010391502
      5931.00       1.5323712    0.0010314701
      5936.93       1.5246207    0.0010235024
      5942.87       1.5158196    0.0010144528
      5948.81       1.5033176    0.0010066583
      5954.76       1.4914908   0.00099781364
      5960.72       1.4800977   0.00099173922
      5966.68       1.4661711   0.00098308432
      5972.64       1.4518956   0.00097565662
      5978.62       1.4355968   0.00096720376
      5984.60       1.4169091   0.00095994148
      5990.58       1.4005235   0.00095167585
      5996.57       1.3843585   0.00094459270
      6002.57       1.3707182   0.00093758732
      6008.57       1.3576732   0.00092959871
      6014.58       1.3463719   0.00092276134
      6020.60       1.3366170   0.00091495858
      6026.62       1.3270419   0.00090828812
      6032.65       1.3179120   0.00090169843
      6038.68       1.3080079   0.00089518684
      6044.72       1.2982116   0.00088774587
      6050.76       1.2881172   0.00088139773
      6056.81       1.2780085   0.00087381226
      6062.87       1.2716652   0.00086763235
      6068.93       1.2645607   0.00086055512
      6075.00       1.2581037   0.00085453484
      6081.08       1.2535192   0.00084859763
      6087.16       1.2491300   0.00084150380
      6093.25       1.2441777   0.00083589157
      6099.34       1.2410837   0.00083068526
      6105.44       1.2405844   0.00082421582
      6111.54       1.2403648   0.00081854040
      6117.66       1.2392874   0.00081321703
      6123.78       1.2392496   0.00080734354
      6129.90       1.2387705   0.00080317083
      6136.03       1.2393748   0.00079947234
      6142.17       1.2401290   0.00079498829
      6148.31       1.2369921   0.00079177541
      6154.46       1.2293878   0.00078739930
      6160.61       1.2182172   0.00078386715
      6166.77       1.2042886   0.00077880155
      6172.94       1.1887685   0.00077437025
      6179.11       1.1704053   0.00076825450
      6185.29       1.1479478   0.00076368058
      6191.48       1.1230778   0.00075672639
      6197.67       1.0964111   0.00074965848
      6203.87       1.0696647   0.00074379604
      6210.07       1.0427593   0.00073719135
      6216.28       1.0188927   0.00073303751
      6222.50      0.99849121   0.00072715738
      6228.72      0.97963123   0.00072117435
      6234.95      0.96499129   0.00071626280
      6241.19      0.95831405   0.00071184097
      6247.42      0.95704783   0.00070651363
      6253.67      0.96028806   0.00070212407
      6259.93      0.96722404   0.00069709277
      6266.19      0.97491763   0.00069395758
      6272.46      0.98393288   0.00068919527
      6278.73      0.99965299   0.00068536151
      6285.01       1.0146039   0.00068089765
      6291.29       1.0318702   0.00067735347
      6297.58       1.0504782   0.00067313291
      6303.88       1.0667445   0.00066975644
      6310.19       1.0839211   0.00066576439
      6316.50       1.1000455   0.00066273099
      6322.81       1.1152182   0.00065917505
      6329.14       1.1286331   0.00065667655
      6335.47       1.1422401   0.00065429034
      6341.80       1.1523018   0.00065104711
      6348.14       1.1603190   0.00064855730
      6354.49       1.1672806   0.00064611446
      6360.85       1.1728638   0.00064292137
      6367.21       1.1779755   0.00064041429
      6373.57       1.1816403   0.00063779404
      6379.95       1.1809473   0.00063423654
      6386.33       1.1802754   0.00063081181
      6392.72       1.1792068   0.00062815535
      6399.11       1.1818460   0.00062560953
      6405.51       1.1817091   0.00062237871
      6411.92       1.1835641   0.00062012889
      6418.32       1.1884844   0.00061794448
      6424.74       1.1924958   0.00061574829
      6431.17       1.1976776   0.00061273456
      6437.60       1.1975458   0.00061054905
      6444.04       1.1962402   0.00060764388
      6450.48       1.1934618   0.00060568731
      6456.94       1.1856201   0.00060378715
      6463.39       1.1736346   0.00060105709
      6469.85       1.1561098   0.00059919884
      6476.33       1.1352551   0.00059673197
      6482.80       1.1111712   0.00059518892
      6489.28       1.0828735   0.00059300402
      6495.77       1.0539530   0.00059166904
      6502.27       1.0204918   0.00058966767
      6508.77      0.99245990   0.00058775496
      6515.28      0.96803082   0.00058734427
      6521.80      0.94970954   0.00058555913
      6528.32      0.93852988   0.00058458285
      6534.85      0.93439875   0.00058293701
      6541.38      0.94159940   0.00058207004
      6547.92      0.95457112   0.00058129709
      6554.47      0.97341957   0.00057986917
      6561.03      0.99858041   0.00057919158
      6567.59       1.0302652   0.00057789469
      6574.16       1.0655585   0.00057666598
      6580.73       1.1009777   0.00057689163
      6587.31       1.1357222   0.00057578815
      6593.90       1.1698454   0.00057543495
      6600.50       1.2008623   0.00057446005
      6607.10       1.2297296   0.00057423831
      6613.70       1.2537079   0.00057338680
      6620.32       1.2745815   0.00057328885
      6626.94       1.2865727   0.00057256630
      6633.57       1.2976535   0.00057259574
      6640.20       1.3028272   0.00057199277
      6646.84       1.3066607   0.00057214303
      6653.49       1.3067155   0.00057235744
      6660.14       1.3022317   0.00057197320
      6666.80       1.2954224   0.00057273469
      6673.47       1.2799680   0.00057484671
      6680.14       1.2716588   0.00057658132
      6686.82       1.2549424   0.00057679811
      6693.51       1.2367529   0.00057707408
      6700.20       1.2220858   0.00057926366
      6706.90       1.2066277   0.00058349400
      6713.61       1.1914600   0.00059047377
      6720.32       1.1777528   0.00059924191
      6727.05       1.1646588   0.00060887128
      6733.77       1.1549787   0.00061926098
      6740.51       1.1472460   0.00062899997
      6747.25       1.1409099   0.00063628637
      6754.00       1.1345622   0.00064056044
      6760.75       1.1314651   0.00064263830
      6767.51       1.1273897   0.00064062105
      6774.28       1.1246847   0.00063664815
      6781.05       1.1207315   0.00063000141
      6787.84       1.1162412   0.00062383384
      6794.62       1.1097340   0.00061841987
      6801.42       1.1000647   0.00061574145
      6808.22       1.0980679   0.00061352866
      6815.03       1.0853065   0.00061059035
      6821.85       1.0779838   0.00060755891
      6828.67       1.0748007   0.00060695842
      6835.50       1.0659543   0.00060603716
      6842.33       1.0552348   0.00060607679
      6849.17       1.0396843   0.00060659289
      6856.02       1.0259387   0.00060697577
      6862.88       1.0120691   0.00060780791
      6869.74      0.99547523   0.00061039610
      6876.61      0.97615060   0.00061172603
      6883.49      0.95787450   0.00061299370
      6890.37      0.94081544   0.00061486158
      6897.27      0.92616056   0.00061645145
      6904.16      0.91396213   0.00061723582
      6911.07      0.90818164   0.00061887020
      6917.98      0.90760725   0.00061996046
      6924.89      0.91109435   0.00062195781
      6931.82      0.91985341   0.00062318690
      6938.75      0.93497957   0.00062524180
      6945.69      0.95542201   0.00062668013
      6952.64      0.97722171   0.00062904575
      6959.59       1.0021471   0.00063088121
      6966.55       1.0258630   0.00063392874
      6973.52       1.0498629   0.00063732671
      6980.49       1.0710418   0.00064002610
      6987.47       1.0907795   0.00064375578
      6994.46       1.1043075   0.00064789622
      7001.46       1.1111290   0.00065212314
      7008.46       1.1137748   0.00065783463
      7015.46       1.1144966   0.00066591935
      7022.48       1.1111025   0.00067583705
      7029.51       1.1036976   0.00068579174
      7036.53       1.0954764   0.00069664584
      7043.57       1.0842569   0.00070558376
      7050.62       1.0724112   0.00071351589
      7057.66       1.0557551   0.00071990264
      7064.72       1.0409726   0.00072415539
      7071.79       1.0295761   0.00072783596
      7078.86       1.0153360   0.00073021703
      7085.94      0.99821175   0.00073133550
      7093.03      0.98462349   0.00073362505
      7100.12      0.97180258   0.00073633528
      7107.22      0.96011986   0.00074084172
      7114.33      0.94748107   0.00074495909
      7121.44      0.93610380   0.00074966089
      7128.56      0.92710459   0.00075279897
      7135.69      0.92252976   0.00075557674
      7142.83      0.91887140   0.00075614915
      7149.97      0.91783157   0.00075609705
      7157.12      0.91931471   0.00075805178
      7164.28      0.92452475   0.00075858765
      7171.44      0.93259791   0.00075865397
      7178.62      0.93909058   0.00075886030
      7185.80      0.94747723   0.00075809828
      7192.98      0.95516498   0.00075839266
      7200.17      0.96443716   0.00075838768
      7207.38      0.97086202   0.00075974326
      7214.58      0.97355072   0.00076144223
      7221.80      0.97538554   0.00076287315
      7229.02      0.97560816   0.00076580468
      7236.25      0.97639303   0.00076815955
      7243.49      0.97440806   0.00077155996
      7250.73      0.97285668   0.00077391693
      7257.98      0.97080116   0.00077719997
      7265.24      0.96830327   0.00077979399
      7272.51      0.96329974   0.00078351470
      7279.78      0.95514241   0.00078653589
      7287.06      0.94723227   0.00079071817
      7294.35      0.94132797   0.00079408508
      7301.64      0.93540480   0.00079848293
      7308.94      0.93009373   0.00080298558
      7316.25      0.92628263   0.00080668700
      7323.57      0.92169389   0.00081147381
      7330.89      0.91467079   0.00081630546
      7338.22      0.90726566   0.00081942984
      7345.56      0.90181511   0.00082442836
      7352.91      0.89673853   0.00082949032
      7360.26      0.89066505   0.00083460530
      7367.62      0.88448237   0.00083916054
      7374.99      0.87904558   0.00084622147
      7382.37      0.87719198   0.00085777713
      7389.75      0.88066599   0.00087057615
      7397.14      0.88133254   0.00088014585
      7404.53      0.87158427   0.00088173868
      7411.94      0.86806354   0.00089170965
      7419.35      0.86550385   0.00091458263
      7426.77      0.86374950   0.00095011821
      7434.20      0.86256094   0.00099873902
      7441.63      0.85861848    0.0010594588
      7449.07      0.85836146    0.0011336502
      7456.52      0.86029403    0.0012114637
      7463.98      0.85396799    0.0012893589
      7471.45      0.84571572    0.0013565340
      7478.92      0.83963158    0.0013992169
      7486.40      0.83776158    0.0014083771
      7493.88      0.83110970    0.0013877478
      7501.38      0.82269914    0.0013353117
      7508.88      0.81575595    0.0012702368
      7516.39      0.80626440    0.0012025282
      7523.91      0.80096860    0.0011466382
      7531.43      0.79794454    0.0011031995
      7538.96      0.79036442    0.0010680436
      7546.50      0.78397368    0.0010390929
      7554.05      0.78717587    0.0010216405
      7561.60      0.78787509    0.0010148584
      7569.16      0.78221532    0.0010088504
      7576.73      0.77570513    0.0010050715
      7584.31      0.77111085    0.0010025766
      7591.89      0.76930594    0.0010030911
      7599.49      0.76464039    0.0010043978
      7607.09      0.75780745    0.0010082022
      7614.70      0.75025658    0.0010118450
      7622.31      0.74485685    0.0010171867
      7629.93      0.74024152    0.0010228566
      7637.56      0.73732741    0.0010275728
      7645.20      0.73502244    0.0010336940
      7652.85      0.73082783    0.0010389535
      7660.50      0.72297489    0.0010451804
      7668.16      0.71658686    0.0010502544
      7675.83      0.71468154    0.0010565948
      7683.50      0.71792947    0.0010619552
      7691.19      0.72138272    0.0010684045
      7698.88      0.72397127    0.0010750810
      7706.58      0.72067628    0.0010809809
      7714.29      0.71530819    0.0010879889
      7722.00      0.71424172    0.0010942547
      7729.73      0.71872031    0.0011003955
      7737.45      0.72259630    0.0011068708
      7745.19      0.72307733    0.0011139502
      7752.94      0.72199718    0.0011209294
      7760.69      0.72134546    0.0011274612
      7768.45      0.72403150    0.0011328758
      7776.22      0.73175581    0.0011392637
      7784.00      0.74273407    0.0011445334
      7791.78      0.75128178    0.0011497547
      7799.57      0.75509134    0.0011560683
      7807.37      0.75528844    0.0011614796
      7815.18      0.75554589    0.0011684706
      7822.99      0.75734718    0.0011752627
      7830.82      0.75719400    0.0011809311
      7838.65      0.75252698    0.0011879810
      7846.49      0.74451399    0.0011936277
      7854.34      0.73486624    0.0011990316
      7862.19      0.72949478    0.0012066128
      7870.05      0.72739309    0.0012117204
      7877.93      0.72614037    0.0012169565
      7885.80      0.72357134    0.0012236386
      7893.69      0.72265280    0.0012287354
      7901.58      0.72336241    0.0012353508
      7909.49      0.72285130    0.0012411131
      7917.40      0.72528125    0.0012488064
      7925.31      0.72937902    0.0012560533
      7933.24      0.73305142    0.0012658222
      7941.17      0.73247327    0.0012754716
      7949.11      0.72734195    0.0012863701
      7957.06      0.71867321    0.0013011023
      7965.02      0.70863997    0.0013181631
      7972.98      0.69888659    0.0013351026
      7980.96      0.68804453    0.0013549345
      7988.94      0.67619861    0.0013753709
      7996.93      0.66499492    0.0013967805
      8004.93      0.65339001    0.0014132710
      8012.93      0.64449695    0.0014209094
      8020.95      0.63837991    0.0014298011
      8028.97      0.63653029    0.0014375752
      8036.99      0.63618029    0.0014423870
      8045.03      0.63405133    0.0014474292
      8053.08      0.62806339    0.0014497554
      8061.13      0.62106749    0.0014523056
      8069.20      0.61907111    0.0014533189
      8077.26      0.62077709    0.0014568579
      8085.34      0.62076792    0.0014600239
      8093.43      0.61618226    0.0014624177
      8101.52      0.60992123    0.0014652361
      8109.62      0.60813197    0.0014662234
      8117.73      0.60536368    0.0014681294
      8125.85      0.60178123    0.0014695521
      8133.98      0.59692850    0.0014704043
      8142.11      0.59129573    0.0014742876
      8150.25      0.58355824    0.0014825226
      8158.41      0.57443725    0.0014829802
      8166.56      0.56645628    0.0014799314
      8174.73      0.55857624    0.0014778093
      8182.91      0.55262839    0.0014779954
      8191.09      0.54258790    0.0014772097
      8199.28      0.53136185    0.0014791103
      8207.48      0.51575784    0.0014794696
      8215.69      0.50022342    0.0014810487
      8223.91      0.48730014    0.0014817697
      8232.13      0.47718707    0.0014848923
      8240.36      0.46766985    0.0014873942
      8248.60      0.45966051    0.0014915559
      8256.85      0.45507487    0.0014942146
      8265.11      0.44936933    0.0014987007
      8273.37      0.43851590    0.0015035101
      8281.65      0.42822889    0.0015071912
      8289.93      0.41994978    0.0015111810
      8298.22      0.41350942    0.0015167463
      8306.52      0.41111633    0.0015208778
      8314.83      0.41032664    0.0015253016
      8323.14      0.40941367    0.0015313013
      8331.46      0.40818662    0.0015374459
      8339.80      0.40927718    0.0015421635
      8348.13      0.41041177    0.0015481928
      8356.48      0.41537291    0.0015542016
      8364.84      0.41968731    0.0015570159
      8373.21      0.42732398    0.0015625814
      8381.58      0.43660340    0.0015666142
      8389.96      0.44670800    0.0015719279
      8398.35      0.45895836    0.0015757844
      8406.75      0.47139594    0.0015812636
      8415.16      0.48389945    0.0015866171
      8423.57      0.49134509    0.0015904854
      8432.00      0.49701583    0.0015956158
      8440.43      0.49950451    0.0015993939
      8448.87      0.50410517    0.0016033240
      8457.32      0.51069510    0.0016074622
      8465.78      0.51795823    0.0016146908
      8474.25      0.52403860    0.0016187839
      8482.72      0.52942919    0.0016228602
      8491.20      0.53508174    0.0016285544
      8499.69      0.53997021    0.0016324852
      8508.19      0.54510061    0.0016362866
      8516.70      0.55289147    0.0016416060
      8525.22      0.56095118    0.0016451489
      8533.75      0.56946530    0.0016502230
      8542.28      0.57526251    0.0016535480
      8550.82      0.58206825    0.0016584868
      8559.37      0.59117994    0.0016618032
      8567.93      0.59911231    0.0016668001
      8576.50      0.60382976    0.0016702535
      8585.08      0.60165210    0.0016753538
      8593.66      0.59461414    0.0016803531
      8602.26      0.58755431    0.0016823328
      8610.86      0.58415777    0.0016874908
      8619.47      0.58370869    0.0016925360
      8628.09      0.58294231    0.0016958849
      8636.72      0.58264309    0.0016993542
      8645.36      0.57996089    0.0017042518
      8654.00      0.57395022    0.0017091536
      8662.66      0.56420048    0.0017125552
      8671.32      0.55800560    0.0017175463
      8679.99      0.55628284    0.0017195200
      8688.67      0.55676821    0.0017246711
      8697.36      0.55937308    0.0017288754
      8706.06      0.56038694    0.0017353579
      8714.76      0.56351787    0.0017408862
      8723.48      0.56337325    0.0017480686
      8732.21      0.55795822    0.0017579204
      8740.93      0.54980536    0.0017685625
      8749.68      0.53888616    0.0017822296
      8758.43      0.52806087    0.0017986138
      8767.19      0.52225936    0.0018197233
      8775.96      0.51832591    0.0018452434
      8784.73      0.51442333    0.0018741890
      8793.52      0.51146054    0.0019026358
      8802.31      0.50609654    0.0019306442
      8811.11      0.49889899    0.0019548389
      8819.92      0.48988334    0.0019744546
      8828.75      0.48149567    0.0019818364
      8837.57      0.47618209    0.0019805914
      8846.41      0.47335239    0.0019755898
      8855.26      0.47188994    0.0019659275
      8864.12      0.47010554    0.0019598223
      8872.98      0.46538006    0.0019571194
      8881.85      0.46051742    0.0019588417
      8890.73      0.44950583    0.0019614510
      8899.63      0.44064547    0.0019721986
      8908.52      0.43368469    0.0019855747
      8917.43      0.43031722    0.0019965788
      8926.35      0.42930815    0.0020071869
      8935.28      0.42945962    0.0020161907
      8944.22      0.42895129    0.0020194789
      8953.16      0.42637526    0.0020204661
      8962.11      0.42578692    0.0020218362
      8971.08      0.42250771    0.0020215726
      8980.05      0.42244798    0.0020182817
      8989.03      0.42277066    0.0020133009
      8998.02      0.42058510    0.0019991573
      9007.02      0.42151465    0.0019862619
      9016.02      0.42290143    0.0019726165
      9025.04      0.42848976    0.0019621194
      9034.07      0.43198545    0.0019522565
      9043.10      0.43434234    0.0019494883
      9052.14      0.43620178    0.0019503307
      9061.20      0.43583655    0.0019566534
      9070.26      0.43805846    0.0019742454
      9079.33      0.43837951    0.0019980544
      9088.41      0.43700062    0.0020327358
      9097.50      0.43262124    0.0020836488
      9106.60      0.42544601    0.0021549726
      9115.70      0.41398463    0.0022511904
      9124.82      0.40039878    0.0023643009
      9133.94      0.38547689    0.0024917023
      9143.08      0.37130679    0.0026322138
      9152.22      0.36353439    0.0027634798
      9161.37      0.35934420    0.0028722274
      9170.54      0.35289546    0.0029486941
      9179.71      0.35445479    0.0029715602
      9188.89      0.35390510    0.0029522818
      9198.08      0.35958266    0.0029001661
      9207.28      0.35977889    0.0028319425
      9216.48      0.36780320    0.0027530964
      9225.70      0.36711797    0.0026878153
      9234.92      0.37101572    0.0026387145
      9244.16      0.36953980    0.0026117022
      9253.40      0.37038051    0.0025990884
      9262.66      0.36531268    0.0025864095
      9271.92      0.35925936    0.0025736182
      9281.20      0.35640873    0.0025592685
      9290.48      0.35489315    0.0025353962
      9299.77      0.35432800    0.0025026740
      9309.07      0.35204947    0.0024662538
      9318.38      0.34779990    0.0024157256
      9327.69      0.34413587    0.0023669472
      9337.02      0.34376013    0.0023244215
      9346.36      0.34946744    0.0022850464
      9355.71      0.35406194    0.0022482031
      9365.07      0.35934623    0.0022102592
      9374.43      0.36131516    0.0021690096
      9383.80      0.36040251    0.0021223082
      9393.19      0.35755646    0.0020778924
      9402.58      0.35819125    0.0020363208
      9411.98      0.36338010    0.0019913723
      9421.40      0.36988455    0.0019488951
      9430.82      0.37658143    0.0019036600
      9440.25      0.37826345    0.0018576527
      9449.69      0.38211911    0.0018119382
      9459.14      0.38279958    0.0017623413
      9468.60      0.38387863    0.0017184951
      9478.07      0.38698072    0.0016805619
      9487.55      0.38726696    0.0016430204
      9497.04      0.38826026    0.0016091758
      9506.53      0.39344732    0.0015799298
      9516.04      0.39312839    0.0015539001
      9525.56      0.39151072    0.0015296663
      9535.08      0.39235682    0.0015065291
      9544.62      0.38890795    0.0014865601
      9554.16      0.38756660    0.0014682726
      9563.72      0.38757534    0.0014490785
      9573.29      0.38622294    0.0014302974
      9582.85      0.38550272    0.0014114597
      9592.44      0.38386312    0.0013940935
      9602.03      0.38611968    0.0013763897
      9611.63      0.38479137    0.0013571561
      9621.25      0.38736003    0.0013392874
      9630.87      0.38495411    0.0013210918
      9640.50      0.38281133    0.0013020897
      9650.14      0.37944455    0.0012895063
      9659.79      0.37635548    0.0013011156
      9669.45      0.37415893    0.0013158854
      9679.12      0.37341342    0.0013352495
      9688.80      0.37311664    0.0013593412
      9698.49      0.37266685    0.0013904933
      9708.19      0.37234138    0.0014322569
      9717.90      0.37061350    0.0014852793
      9727.62      0.36784426    0.0015575816
      9737.34      0.36579747    0.0016486884
      9747.08      0.36253381    0.0017722964
      9756.83      0.35993997    0.0019302557
      9766.59      0.35707477    0.0021304065
      9776.35      0.35415449    0.0023997862
      9786.13      0.35114477    0.0027360482
      9795.92      0.34672594    0.0031769829
      9805.71      0.34200261    0.0037077945
