# starting wavelength =        3728.0300
# ending wavelength =        10665.900
# O2 telluric scale =        0
# O2 telluric shift =        0
# H2O telluric scale =        0
# H2O telluric shift =        0
      3729.98      0.42451330     0.035684492
      3733.71      0.38708721     0.030269442
      3737.45      0.34081956     0.027134159
      3741.18      0.30600073     0.023568832
      3744.93      0.27650683     0.020793101
      3748.67      0.24967145     0.018627817
      3752.42      0.22294706     0.016947308
      3756.17      0.20161106     0.015321406
      3759.93      0.18003657     0.014374023
      3763.69      0.17263875     0.013627146
      3767.45      0.16327493     0.013029520
      3771.22      0.15462277     0.012544230
      3774.99      0.15034293     0.012142585
      3778.77      0.14732003     0.011912643
      3782.54      0.13623744     0.011615550
      3786.33      0.12530774     0.011358333
      3790.11      0.12818302     0.011132486
      3793.90      0.12381353     0.010931900
      3797.70      0.11592171     0.010827478
      3801.50      0.11498502     0.010735739
      3805.30     0.097146929     0.010717050
      3809.10     0.084573327     0.010698622
      3812.91      0.10111500     0.010680164
      3816.73      0.11923883     0.010662023
      3820.54      0.15625784     0.010723314
      3824.36      0.15031907     0.010704165
      3828.19      0.15020255     0.010685218
      3832.02      0.16548241     0.010666506
      3835.85      0.18858945     0.010647862
      3839.68      0.20686962     0.010629444
      3843.52      0.22779987     0.010611095
      3847.37      0.24732920     0.010670780
      3851.22      0.26297368     0.010652488
      3855.07      0.27583133     0.010634410
      3858.92      0.30217739     0.010616341
      3862.78      0.33059000     0.010598360
      3866.64      0.35246845     0.010580564
      3870.51      0.37132121     0.010562905
      3874.38      0.38949416     0.010625232
      3878.26      0.41457644     0.010606880
      3882.13      0.43150650     0.010588663
      3886.02      0.45517141     0.010570421
      3889.90      0.46830468     0.010552349
      3893.79      0.49422497     0.010534406
      3897.69      0.50973777     0.010516426
      3901.59      0.53507827     0.010498701
      3905.49      0.55258942     0.010560093
      3909.39      0.57281266     0.010542272
      3913.30      0.58796406     0.010524655
      3917.22      0.59610730     0.010507060
      3921.13      0.59562039     0.010489413
      3925.06      0.60731736     0.010472109
      3928.98      0.60897265     0.010454723
      3932.91      0.60230243     0.010437265
      3936.84      0.60231690     0.010576945
      3940.78      0.60528108     0.010559489
      3944.72      0.60802573     0.010542030
      3948.67      0.60614882     0.010524810
      3952.61      0.60746548     0.010507455
      3956.57      0.61211321     0.010490233
      3960.52      0.62388441     0.010473145
      3964.48      0.62913398     0.010455908
      3968.45      0.63120546     0.010438916
      3972.42      0.63385136     0.010421910
      3976.39      0.63779384     0.010488759
      3980.37      0.63798841     0.010471528
      3984.35      0.63287258     0.010454434
      3988.33      0.63327273     0.010437327
      3992.32      0.63233498     0.010420286
      3996.31      0.62552278     0.010403388
      4000.31      0.61571655     0.010463866
      4004.31      0.60042089     0.010446940
      4008.31      0.59988726     0.010430081
      4012.32      0.59765028     0.010413235
      4016.33      0.59731503     0.010396418
      4020.35      0.58955510     0.010379672
      4024.37      0.58345519     0.010449074
      4028.40      0.57953315     0.010432303
      4032.42      0.57475105     0.010415807
      4036.46      0.56506801     0.010399350
      4040.50      0.54957277     0.010461448
      4044.54      0.53794334     0.010444813
      4048.58      0.52370245     0.010428042
      4052.63      0.51241887     0.010411399
      4056.68      0.49533885     0.010394904
      4060.74      0.48407260     0.010378276
      4064.80      0.47632553     0.010361876
      4068.86      0.47424145     0.010345490
      4072.93      0.47109847     0.010328966
      4077.01      0.46871728     0.010395870
      4081.08      0.46647267     0.010379467
      4085.17      0.46359757     0.010363095
      4089.25      0.46369437     0.010347052
      4093.34      0.46628931     0.010330865
      4097.43      0.46147414     0.010401721
      4101.53      0.45651617     0.010385860
      4105.63      0.44937514     0.010456373
      4109.74      0.44620131     0.010440386
      4113.85      0.44393715     0.010424613
      4117.96      0.43842778     0.010408880
      4122.08      0.43276498     0.010393309
      4126.20      0.42764160     0.010377821
      4130.33      0.42748929     0.010362526
      4134.46      0.42382296     0.010430998
      4138.59      0.41482287     0.010414746
      4142.73      0.41568174     0.010398572
      4146.88      0.41273257     0.010382529
      4151.02      0.41252683     0.010366639
      4155.18      0.41493209     0.010350853
      4159.33      0.41815838     0.010424885
      4163.49      0.42020592     0.010409460
      4167.65      0.42474748     0.010393996
      4171.82      0.42943558     0.010378936
      4175.99      0.44316982     0.010363983
      4180.17      0.45790141     0.010438135
      4184.35      0.46592206     0.010422033
      4188.54      0.47353560     0.010405878
      4192.72      0.47927495     0.010390042
      4196.92      0.48532201     0.010374470
      4201.11      0.49441313     0.010452277
      4205.31      0.49115695     0.010436987
      4209.52      0.48299278     0.010421874
      4213.73      0.47565399     0.010406924
      4217.94      0.46992683     0.010392554
      4222.16      0.46392927     0.010470685
      4226.38      0.45354123     0.010454395
      4230.61      0.44490273     0.010438514
      4234.84      0.43553137     0.010422818
      4239.08      0.43266681     0.010407496
      4243.32      0.43256684     0.010490164
      4247.56      0.43845623     0.010475499
      4251.81      0.44185267     0.010461201
      4256.06      0.44996204     0.010447150
      4260.32      0.46468503     0.010528639
      4264.58      0.47532923     0.010512610
      4268.84      0.48040852     0.010497053
      4273.11      0.49094281     0.010481855
      4277.38      0.50302052     0.010569689
      4281.66      0.50998907     0.010555460
      4285.94      0.51131037     0.010541453
      4290.23      0.51509357     0.010528222
      4294.52      0.51763431     0.010612522
      4298.81      0.52179824     0.010596701
      4303.11      0.52064953     0.010478101
      4307.42      0.51629872     0.010463608
      4311.72      0.51192758     0.010555132
      4316.04      0.51364002     0.010538264
      4320.35      0.51384349     0.010521932
      4324.67      0.51078015     0.010506568
      4329.00      0.50982520     0.010598936
      4333.33      0.50817964     0.010584486
      4337.66      0.50691269     0.010570928
      4342.00      0.51027447     0.010665315
      4346.34      0.50888694     0.010648621
      4350.69      0.50557132     0.010632869
      4355.04      0.50225880     0.010618038
      4359.39      0.49022107     0.010717628
      4363.75      0.47941977     0.010704325
      4368.12      0.47403874     0.010691879
      4372.48      0.46018476     0.010787151
      4376.86      0.45130169     0.010657955
      4381.23      0.45185823     0.010643650
      4385.61      0.45372727     0.010630371
      4390.00      0.45422824     0.010730656
      4394.39      0.45554830     0.010713898
      4398.79      0.46088222     0.010698599
      4403.18      0.46656837     0.010804159
      4407.59      0.47227811     0.010790967
      4412.00      0.47898363     0.010778899
      4416.41      0.49195240     0.010881120
      4420.82      0.50447030     0.010865742
      4425.25      0.51113138     0.010732183
      4429.67      0.52742190     0.010719513
      4434.10      0.54061278     0.010825328
      4438.54      0.55140993     0.010808650
      4442.97      0.56419011     0.010675629
      4447.42      0.57828894     0.010662315
      4451.86      0.59221638     0.010650653
      4456.32      0.61109154     0.010753479
      4460.77      0.62654639     0.010619853
      4465.24      0.64221943     0.010606688
      4469.70      0.66093439     0.010594706
      4474.17      0.67579443     0.010698764
      4478.65      0.68618320     0.010566020
      4483.12      0.69975278     0.010552041
      4487.61      0.71425891     0.010540432
      4492.09      0.73037046     0.010530152
      4496.59      0.75156320     0.010512489
      4501.08      0.77774361     0.010499135
      4505.58      0.80441309     0.010487178
      4510.09      0.83486038     0.010477748
      4514.60      0.87110550     0.010460153
      4519.12      0.90315856     0.010446976
      4523.63      0.93424649     0.010435878
      4528.16      0.96462635     0.010306660
      4532.69      0.99692968     0.010408781
      4537.22       1.0246872     0.010396139
      4541.76       1.0536962     0.010385704
      4546.30       1.0749164     0.010256133
      4550.85       1.0969160     0.010242696
      4555.40       1.1138031     0.010346708
      4559.95       1.1255803     0.010220695
      4564.51       1.1375259     0.010206332
      4569.08       1.1444758     0.010309073
      4573.65       1.1527175     0.010186536
      4578.22       1.1588607     0.010171300
      4582.80       1.1635591     0.010157997
      4587.38       1.1714634     0.010153410
      4591.97       1.1743587     0.010137056
      4596.56       1.1737744     0.010122977
      4601.16       1.1674624     0.010111557
      4605.76       1.1563852     0.010103349
      4610.37       1.1472530     0.010088879
      4614.98       1.1360381     0.010076726
      4619.59       1.1247711     0.010070463
      4624.21       1.1150483     0.010055463
      4628.84       1.1083467     0.010042759
      4633.47       1.1010305    0.0099277348
      4638.10       1.0963952     0.010022170
      4642.74       1.0890290     0.010009443
      4647.38       1.0838142    0.0098947472
      4652.03       1.0801893    0.0099896602
      4656.68       1.0763306    0.0098724845
      4661.34       1.0697669    0.0098624838
      4666.00       1.0628649    0.0099575772
      4670.67       1.0532895    0.0098406271
      4675.33       1.0416623    0.0098308227
      4680.01       1.0256656    0.0098241214
      4684.69       1.0031655    0.0098095924
      4689.38      0.97929752    0.0098003236
      4694.07      0.95759110    0.0097938977
      4698.76      0.93547724    0.0097789556
      4703.46      0.91380705    0.0097702528
      4708.16      0.89213106    0.0096556785
      4712.87      0.87448756    0.0097491697
      4717.58      0.85829265    0.0097410261
      4722.30      0.84279093    0.0096258657
      4727.03      0.82774174    0.0097199178
      4731.75      0.81608639    0.0097128149
      4736.48      0.80380821    0.0095967748
      4741.22      0.79655915    0.0096915523
      4745.96      0.78724111    0.0095796700
      4750.71      0.77822181    0.0096722184
      4755.46      0.76633541    0.0096642685
      4760.22      0.75552204    0.0095510906
      4764.97      0.74534488    0.0096446778
      4769.74      0.74095581    0.0095350378
      4774.51      0.73536525    0.0095234229
      4779.29      0.73446378    0.0095204013
      4784.07      0.73697030    0.0095068171
      4788.85      0.73737441    0.0094968698
      4793.64      0.73951640    0.0094914720
      4798.43      0.73893724    0.0094796814
      4803.23      0.74064313    0.0094773141
      4808.03      0.73782956    0.0094639031
      4812.84      0.73365239    0.0094540524
      4817.66      0.72757248    0.0094489457
      4822.48      0.72338840    0.0094376728
      4827.30      0.71476547    0.0093354846
      4832.12      0.70813231    0.0094221429
      4836.96      0.70004433    0.0093187839
      4841.79      0.69015361    0.0094074439
      4846.63      0.68085647    0.0093028528
      4851.48      0.67369820    0.0092967131
      4856.33      0.66773099    0.0093818488
      4861.19      0.66489102    0.0092802145
      4866.05      0.65940973    0.0093671253
      4870.92      0.65771179    0.0092646449
      4875.79      0.65865252    0.0092601817
      4880.66      0.65810474    0.0092497221
      4885.55      0.66138712    0.0092443945
      4890.43      0.66262771    0.0092355598
      4895.32      0.66887519    0.0092290192
      4900.22      0.67627065    0.0092216621
      4905.12      0.68558014    0.0092143811
      4910.02      0.70338602    0.0091132928
      4914.94      0.72341321    0.0092001682
      4919.85      0.74956433    0.0091002864
      4924.77      0.78028646    0.0091864737
      4929.70      0.81369362    0.0090875402
      4934.62      0.84961377    0.0091732094
      4939.56      0.88634033    0.0090749332
      4944.50      0.92144637    0.0091601163
      4949.44      0.95535507    0.0090627590
      4954.39      0.98121847    0.0090531393
      4959.35       1.0041633    0.0090508141
      4964.31       1.0240816    0.0090407780
      4969.27       1.0366755    0.0090390791
      4974.24       1.0445072    0.0090285586
      4979.22       1.0478589    0.0090273777
      4984.20       1.0482330    0.0090167836
      4989.18       1.0438865    0.0090160082
      4994.17       1.0378220    0.0090052713
      4999.16       1.0313145    0.0090046747
      5004.16       1.0258150    0.0089940421
      5009.17       1.0188202    0.0089932543
      5014.18       1.0103701    0.0089828401
      5019.19       1.0026559    0.0089819902
      5024.21      0.99357010    0.0089719586
      5029.23      0.98266164    0.0089709701
      5034.26      0.96788403    0.0089613666
      5039.30      0.95010295    0.0088708350
      5044.34      0.93311663    0.0089508894
      5049.39      0.91184805    0.0088611102
      5054.43      0.88591917    0.0088551301
      5059.49      0.86790377    0.0089389408
      5064.55      0.85094344    0.0088455304
      5069.61      0.84003569    0.0089288567
      5074.68      0.83962792    0.0088360904
      5079.76      0.84004201    0.0089187689
      5084.84      0.84977073    0.0088269204
      5089.92      0.86744305    0.0088236612
      5095.01      0.88583243    0.0088183390
      5100.11      0.91206208    0.0088145815
      5105.21      0.93352779    0.0088104262
      5110.31      0.95650127    0.0088057605
      5115.42      0.97596036    0.0088028935
      5120.54      0.99799317    0.0087972563
      5125.66       1.0150664    0.0087077450
      5130.79       1.0327556    0.0087894744
      5135.92       1.0496253    0.0086992343
      5141.05       1.0623833    0.0087821352
      5146.20       1.0730185    0.0086911433
      5151.34       1.0807985    0.0086905624
      5156.49       1.0940444    0.0087710241
      5161.65       1.1080029    0.0086818967
      5166.81       1.1251444    0.0087641110
      5171.98       1.1427072    0.0086740972
      5177.15       1.1632891    0.0086745353
      5182.33       1.1812168    0.0086669908
      5187.51       1.2017561    0.0086660749
      5192.70       1.2177911    0.0087477782
      5197.89       1.2286619    0.0086583899
      5203.09       1.2347405    0.0086593718
      5208.29       1.2397439    0.0086518786
      5213.50       1.2430203    0.0086514647
      5218.72       1.2492148    0.0085668588
      5223.93       1.2549573    0.0086444049
      5229.16       1.2623357    0.0086450928
      5234.39       1.2732469    0.0085591134
      5239.62       1.2830063    0.0086377780
      5244.86       1.2956097    0.0085544094
      5250.11       1.3094203    0.0086315602
      5255.36       1.3276270    0.0086319446
      5260.61       1.3479887    0.0085474787
      5265.87       1.3713782    0.0086253098
      5271.14       1.3954389    0.0085439382
      5276.41       1.4216906    0.0085412859
      5281.69       1.4437606    0.0086200554
      5286.97       1.4657145    0.0085378730
      5292.26       1.4812062    0.0085359412
      5297.55       1.4931654    0.0085361201
      5302.85       1.5015147    0.0085325490
      5308.15       1.5043278    0.0085310506
      5313.46       1.5078789    0.0084494326
      5318.77       1.5112409    0.0085277927
      5324.09       1.5124963    0.0085267554
      5329.42       1.5203362    0.0084454933
      5334.75       1.5263615    0.0085238054
      5340.08       1.5335099    0.0085228974
      5345.42       1.5415879    0.0084417165
      5350.77       1.5481030    0.0085204607
      5356.12       1.5546747    0.0084376520
      5361.48       1.5627712    0.0084385360
      5366.83       1.5689186    0.0085178221
      5372.20       1.5740544    0.0084349063
      5377.58       1.5773503    0.0084357242
      5382.95       1.5788932    0.0084380668
      5388.34       1.5743467    0.0084327225
      5393.72       1.5618028    0.0084332783
      5399.12       1.5476768    0.0084354267
      5404.52       1.5314608    0.0083568797
      5409.92       1.5130098    0.0084315527
      5415.33       1.4930349    0.0084332576
      5420.75       1.4758294    0.0083562154
      5426.17       1.4633596    0.0084302832
      5431.60       1.4585171    0.0084316665
      5437.03       1.4575477    0.0084342516
      5442.47       1.4660973    0.0083558959
      5447.91       1.4790773    0.0084307663
      5453.36       1.4988472    0.0084329271
      5458.81       1.5267121    0.0083565901
      5464.27       1.5630504    0.0083567488
      5469.73       1.6046492    0.0084321822
      5475.20       1.6587837    0.0083583862
      5480.68       1.7203372    0.0083579852
      5486.16       1.7835211    0.0083586669
      5491.65       1.8416846    0.0083603658
      5497.14       1.8883112    0.0083603697
      5502.64       1.9338364    0.0083604451
      5508.14       1.9638162    0.0083614797
      5513.65       1.9762145    0.0083634672
      5519.16       1.9718030    0.0083638788
      5524.68       1.9507376    0.0083642369
      5530.20       1.9154859    0.0083651806
      5535.73       1.8659580    0.0082893055
      5541.27       1.8009309    0.0082920589
      5546.81       1.7272770    0.0083690266
      5552.36       1.6405523    0.0083699738
      5557.91       1.5555632    0.0082939355
      5563.47       1.4653792    0.0082964223
      5569.04       1.3780905    0.0082998829
      5574.60       1.3034730    0.0083038860
      5580.18       1.2422892    0.0082995179
      5585.76       1.1868758    0.0083017907
      5591.35       1.1375390    0.0083049716
      5596.94       1.0958687    0.0083086203
      5602.53       1.0623779    0.0083129964
      5608.14       1.0302202    0.0083083241
      5613.75       1.0053758    0.0083111018
      5619.36      0.98539215    0.0083143278
      5624.98      0.96643019    0.0083182012
      5630.60      0.94932306    0.0082461211
      5636.23      0.93384075    0.0082484410
      5641.87      0.91706317    0.0082510248
      5647.51      0.89672678    0.0083247434
      5653.16      0.87386535    0.0083285080
      5658.82      0.85310208    0.0082580372
      5664.47      0.83081897    0.0082602217
      5670.14      0.80862339    0.0082630478
      5675.81      0.78720179    0.0082660799
      5681.48      0.76558893    0.0082697287
      5687.17      0.74276150    0.0082718285
      5692.85      0.71574664    0.0082741396
      5698.55      0.68677189    0.0082766009
      5704.25      0.66047554    0.0082796017
      5709.95      0.63676772    0.0082828283
      5715.66      0.61862173    0.0082865332
      5721.38      0.60850263    0.0082155950
      5727.10      0.60203855    0.0082198080
      5732.83      0.60431027    0.0082953185
      5738.56      0.61528505    0.0082984137
      5744.30      0.63714895    0.0083016762
      5750.04      0.67136794    0.0083053321
      5755.79      0.71639228    0.0082341071
      5761.55      0.77169706    0.0082381698
      5767.31      0.84073700    0.0082424648
      5773.08      0.91603493    0.0082469868
      5778.85      0.99904560    0.0082518570
      5784.63       1.0871142    0.0082571357
      5790.41       1.1789142    0.0082632034
      5796.21       1.2752576    0.0082694594
      5802.00       1.3658923    0.0082662001
      5807.81       1.4535805    0.0082711790
      5813.61       1.5373704    0.0082771337
      5819.43       1.6133831    0.0082849392
      5825.25       1.6878699    0.0082957205
      5831.07       1.7647890    0.0083082850
      5836.90       1.8374799    0.0083210944
      5842.74       1.9134021    0.0083345921
      5848.58       1.9883668    0.0082743044
      5854.43       2.0639566    0.0082871675
      5860.29       2.1362729    0.0082969186
      5866.15       2.2056220    0.0083048038
      5872.01       2.2714764    0.0083115288
      5877.89       2.3314397    0.0083170484
      5883.76       2.3839880    0.0083209985
      5889.65       2.4300743    0.0083239855
      5895.54       2.4656317    0.0083273032
      5901.43       2.4900599    0.0083312668
      5907.34       2.5004731    0.0083351585
      5913.24       2.4909318    0.0082654180
      5919.16       2.4642774    0.0082673818
      5925.08       2.4288276    0.0082683578
      5931.00       2.3836135    0.0082690590
      5936.93       2.3345232    0.0082699575
      5942.87       2.2857486    0.0082703238
      5948.81       2.2307838    0.0082694361
      5954.76       2.1753360    0.0082695542
      5960.72       2.1170935    0.0082715930
      5966.68       2.0607290    0.0082740682
      5972.64       2.0048658    0.0082751159
      5978.62       1.9508913    0.0082769083
      5984.60       1.8997421    0.0082800711
      5990.58       1.8508294    0.0082842358
      5996.57       1.8029395    0.0082886132
      6002.57       1.7559208    0.0082934026
      6008.57       1.7073584    0.0082985271
      6014.58       1.6617763    0.0083040069
      6020.60       1.6188195    0.0083095278
      6026.62       1.5756998    0.0083149385
      6032.65       1.5375530    0.0083205824
      6038.68       1.5038980    0.0083263171
      6044.72       1.4724275    0.0083321885
      6050.76       1.4449459    0.0083380252
      6056.81       1.4236653    0.0083440264
      6062.87       1.4071044    0.0083498628
      6068.93       1.3935331    0.0083558584
      6075.00       1.3877872    0.0083618379
      6081.08       1.3832200    0.0083023277
      6087.16       1.3803325    0.0083083966
      6093.25       1.3805953    0.0083144807
      6099.34       1.3835131    0.0083206986
      6105.44       1.3862405    0.0083268073
      6111.54       1.3895354    0.0083332363
      6117.66       1.3929455    0.0083394745
      6123.78       1.3987248    0.0083460399
      6129.90       1.4081704    0.0083524342
      6136.03       1.4202836    0.0083592202
      6142.17       1.4344909    0.0083658570
      6148.31       1.4565871    0.0083728493
      6154.46       1.4829973    0.0083131714
      6160.61       1.5194933    0.0083194003
      6166.77       1.5709963    0.0083259067
      6172.94       1.6380786    0.0083338218
      6179.11       1.7278551    0.0083444713
      6185.29       1.8346796    0.0083533916
      6191.48       1.9620535    0.0083591365
      6197.67       2.0972329    0.0083676571
      6203.87       2.2389488    0.0083199781
      6210.07       2.3704341    0.0084111716
      6216.28       2.4852516    0.0084336983
      6222.50       2.5827909    0.0084591305
      6228.72       2.6632131    0.0084854162
      6234.95       2.7279284    0.0085108236
      6241.19       2.7809992    0.0085333102
      6247.42       2.8196261    0.0084862370
      6253.67       2.8479787    0.0084977052
      6259.93       2.8590500    0.0085033366
      6266.19       2.8527257    0.0085030520
      6272.46       2.8285414    0.0084983188
      6278.73       2.7889227    0.0085539164
      6285.01       2.7483197    0.0084788066
      6291.29       2.7023221    0.0084741086
      6297.58       2.6601744    0.0084742888
      6303.88       2.6156555    0.0084745370
      6310.19       2.5696734    0.0084723414
      6316.50       2.5154070    0.0084730049
      6322.81       2.4472381    0.0084074192
      6329.14       2.3691446    0.0084778485
      6335.47       2.2942661    0.0084807357
      6341.80       2.2216806    0.0084846062
      6348.14       2.1574809    0.0084895268
      6354.49       2.1017437    0.0084287678
      6360.85       2.0594283    0.0084338628
      6367.21       2.0314220    0.0084400199
      6373.57       2.0150570    0.0085172702
      6379.95       2.0016024    0.0084615451
      6386.33       1.9923703    0.0084679356
      6392.72       1.9882400    0.0084758321
      6399.11       1.9896460    0.0084855481
      6405.51       1.9931595    0.0084975901
      6411.92       2.0034506    0.0085217251
      6418.32       2.0167894    0.0085353158
      6424.74       2.0301233    0.0085476625
      6431.17       2.0448802    0.0085599694
      6437.60       2.0595118    0.0085099353
      6444.04       2.0719621    0.0085220846
      6450.48       2.0827911    0.0085999000
      6456.94       2.0906479    0.0086065099
      6463.39       2.0952075    0.0085485251
      6469.85       2.0913891    0.0085536076
      6476.33       2.0795630    0.0085590438
      6482.80       2.0597570    0.0085663013
      6489.28       2.0352754    0.0085721528
      6495.77       2.0036815    0.0085794870
      6502.27       1.9674401    0.0085874091
      6508.77       1.9243870    0.0085955910
      6515.28       1.8845898    0.0085998959
      6521.80       1.8466469    0.0086043868
      6528.32       1.8143262    0.0085441732
      6534.85       1.7899532    0.0085488249
      6541.38       1.7655640    0.0086223763
      6547.92       1.7498368    0.0086264583
      6554.47       1.7466215    0.0085651571
      6561.03       1.7475918    0.0085696742
      6567.59       1.7567340    0.0086451419
      6574.16       1.7699334    0.0085885226
      6580.73       1.7847424    0.0085946983
      6587.31       1.7973252    0.0086020931
      6593.90       1.8092466    0.0086164358
      6600.50       1.8123715    0.0086227315
      6607.10       1.8104723    0.0086298063
      6613.70       1.8057289    0.0086448760
      6620.32       1.7991374    0.0086508805
      6626.94       1.7891654    0.0086581516
      6633.57       1.7750139    0.0086048528
      6640.20       1.7604510    0.0086798404
      6646.84       1.7489175    0.0086869582
      6653.49       1.7384186    0.0086332301
      6660.14       1.7257991    0.0087087508
      6666.80       1.7112916    0.0086537962
      6673.47       1.6992862    0.0086618205
      6680.14       1.6873249    0.0086712478
      6686.82       1.6733179    0.0086823549
      6693.51       1.6555057    0.0086907079
      6700.20       1.6351977    0.0087002027
      6706.90       1.6115582    0.0087111808
      6713.61       1.5817662    0.0087196657
      6720.32       1.5482396    0.0086646070
      6727.05       1.5140297    0.0087400070
      6733.77       1.4813666    0.0087487913
      6740.51       1.4473725    0.0086930660
      6747.25       1.4143192    0.0087696117
      6754.00       1.3812104    0.0087248273
      6760.75       1.3508016    0.0087561209
      6767.51       1.3229041    0.0088620310
      6774.28       1.2962567    0.0087943776
      6781.05       1.2699092    0.0088028102
      6787.84       1.2461873    0.0088641564
      6794.62       1.2211538    0.0089348267
      6801.42       1.2006062    0.0090719995
      6808.22       1.1800248    0.0091907166
      6815.03       1.1620667    0.0093235377
      6821.85       1.1455037    0.0095076292
      6828.67       1.1312327    0.0096294357
      6835.50       1.1139483    0.0096624388
      6842.33       1.0981600    0.0098109030
      6849.17       1.0845336    0.0097461664
      6856.02       1.0741663    0.0097828270
      6862.88       1.0690167    0.0096314137
      6869.74       1.0717352    0.0095442518
      6876.61       1.0773660    0.0094220610
      6883.49       1.0914501    0.0093449517
      6890.37       1.1137318    0.0092877978
      6897.27       1.1405302    0.0092524799
      6904.16       1.1780480    0.0091292007
      6911.07       1.2211367    0.0091440376
      6917.98       1.2739915    0.0090575787
      6924.89       1.3295176    0.0091003797
      6931.82       1.3880421    0.0090227785
      6938.75       1.4486003    0.0090758781
      6945.69       1.5069710    0.0090117349
      6952.64       1.5589339    0.0090123480
      6959.59       1.6094775    0.0090235707
      6966.55       1.6552601    0.0090285250
      6973.52       1.6935815    0.0090385385
      6980.49       1.7274268    0.0090386878
      6987.47       1.7563164    0.0090413597
      6994.46       1.7851481    0.0090363341
      7001.46       1.8121560    0.0090382704
      7008.46       1.8436097    0.0090368048
      7015.46       1.8804158    0.0090423445
      7022.48       1.9217824    0.0090407804
      7029.51       1.9720863    0.0090460521
      7036.53       2.0299063    0.0090465990
      7043.57       2.0928955    0.0089898918
      7050.62       2.1563235    0.0090001537
      7057.66       2.2082110    0.0090132492
      7064.72       2.2576343    0.0090338396
      7071.79       2.2969788    0.0090508987
      7078.86       2.3283414    0.0090748995
      7085.94       2.3468520    0.0090987211
      7093.03       2.3560088    0.0091425205
      7100.12       2.3567339    0.0092100787
      7107.22       2.3547875    0.0092796988
      7114.33       2.3420711    0.0094007584
      7121.44       2.3367738    0.0095010721
      7128.56       2.3271625    0.0096266651
      7135.69       2.3361792    0.0096420117
      7142.83       2.3482491    0.0097764359
      7149.97       2.3736250    0.0097428332
      7157.12       2.4051337    0.0098397715
      7164.28       2.4436557    0.0097712332
      7171.44       2.4980714    0.0097619444
      7178.62       2.5669293    0.0097475563
      7185.80       2.6490070    0.0097401355
      7192.98       2.7367682    0.0097536831
      7200.17       2.8254317    0.0097664078
      7207.38       2.9323359    0.0097925950
      7214.58       3.0357220    0.0098040506
      7221.80       3.1543320    0.0098112815
      7229.02       3.2605629    0.0097316801
      7236.25       3.3540014    0.0097702594
      7243.49       3.4359267    0.0097341299
      7250.73       3.4872231    0.0096385381
      7257.98       3.5239500    0.0096774973
      7265.24       3.5271886    0.0095773841
      7272.51       3.5044217    0.0095305552
      7279.78       3.4549597    0.0095521701
      7287.06       3.3755112    0.0094497978
      7294.35       3.2675170    0.0094139487
      7301.64       3.1501383    0.0093923660
      7308.94       3.0158423    0.0093658049
      7316.25       2.8676113    0.0093495555
      7323.57       2.7099623    0.0092780808
      7330.89       2.5454488    0.0093346518
      7338.22       2.3844195    0.0092659504
      7345.56       2.2310788    0.0092597070
      7352.91       2.0853475    0.0093157294
      7360.26       1.9458850    0.0092475999
      7367.62       1.8057783    0.0092462929
      7374.99       1.6751301    0.0092490893
      7382.37       1.5587251    0.0092477133
      7389.75       1.4483567    0.0092526669
      7397.14       1.3523817    0.0092590154
      7404.53       1.2731148    0.0092600852
      7411.94       1.2083914    0.0092679425
      7419.35       1.1665928    0.0092774602
      7426.77       1.1364975    0.0092219791
      7434.20       1.1191924    0.0092901852
      7441.63       1.1169321    0.0093008078
      7449.07       1.1129844    0.0092475402
      7456.52       1.1150656    0.0092574018
      7463.98       1.1191168    0.0093294691
      7471.45       1.1249186    0.0093036318
      7478.92       1.1304034    0.0094034980
      7486.40       1.1326434    0.0095337933
      7493.88       1.1289548    0.0095770702
      7501.38       1.1155448    0.0095461882
      7508.88       1.0975138    0.0096152861
      7516.39       1.0769854    0.0098528476
      7523.91       1.0537260     0.010152009
      7531.43       1.0274131     0.010688434
      7538.96       1.0004326     0.011304917
      7546.50      0.97342063     0.012079418
      7554.05      0.94911637     0.012722559
      7561.60      0.92809545     0.013486011
      7569.16      0.90955491     0.014075342
      7576.73      0.89897832     0.014494944
      7584.31      0.90396543     0.014286843
      7591.89      0.91766078     0.013889476
      7599.49      0.93784124     0.013237110
      7607.09      0.96310241     0.012479269
      7614.70      0.99692297     0.011787511
      7622.31       1.0350840     0.011155512
      7629.93       1.0808941     0.010794841
      7637.56       1.1260870     0.010400288
      7645.20       1.1798033     0.010086190
      7652.85       1.2393325    0.0098528336
      7660.50       1.3021159    0.0097390189
      7668.16       1.3673948    0.0096448431
      7675.83       1.4298052    0.0095662598
      7683.50       1.4870803    0.0095759522
      7691.19       1.5437706    0.0094798036
      7698.88       1.6001590    0.0094556382
      7706.58       1.6573673    0.0094445221
      7714.29       1.7113990    0.0094420085
      7722.00       1.7627074    0.0094441901
      7729.73       1.8034618    0.0093865638
      7737.45       1.8336368    0.0093930697
      7745.19       1.8546908    0.0094013781
      7752.94       1.8680003    0.0094102014
      7760.69       1.8683719    0.0094776765
      7768.45       1.8544489    0.0094864711
      7776.22       1.8314935    0.0094316949
      7784.00       1.7959550    0.0094406659
      7791.78       1.7580958    0.0094506988
      7799.57       1.7138843    0.0094628005
      7807.37       1.6652409    0.0094766283
      7815.18       1.6133912    0.0094914965
      7822.99       1.5556321    0.0095081649
      7830.82       1.4973408    0.0095263599
      7838.65       1.4467677    0.0094796286
      7846.49       1.3998871    0.0094923375
      7854.34       1.3602609    0.0095016768
      7862.19       1.3278111    0.0095100933
      7870.05       1.2997863    0.0095176959
      7877.93       1.2736362    0.0095246967
      7885.80       1.2489234    0.0095311744
      7893.69       1.2319919    0.0095372095
      7901.58       1.2145740    0.0095437196
      7909.49       1.1941652    0.0095517030
      7917.40       1.1741206    0.0094987388
      7925.31       1.1525728    0.0095086456
      7933.24       1.1320483    0.0095179395
      7941.17       1.1150151    0.0095273664
      7949.11       1.1006357    0.0095359427
      7957.06       1.0856270    0.0095423734
      7965.02       1.0689456    0.0095467644
      7972.98       1.0501975    0.0095511241
      7980.96       1.0327916    0.0095566833
      7988.94       1.0165902    0.0095622431
      7996.93       1.0006522    0.0095662728
      8004.93      0.98243187    0.0095726635
      8012.93      0.96551626    0.0095832813
      8020.95      0.94504830    0.0095983914
      8028.97      0.92324561    0.0096211949
      8036.99      0.89809759    0.0096525343
      8045.03      0.87122822    0.0096909470
      8053.08      0.84050218    0.0097431474
      8061.13      0.80443177    0.0098126172
      8069.20      0.76633374    0.0098981998
      8077.26      0.72755665    0.0099932307
      8085.34      0.69374326     0.010044043
      8093.43      0.66011317     0.010157123
      8101.52      0.62809858     0.010262253
      8109.62      0.59423712     0.010322093
      8117.73      0.56307169     0.010343578
      8125.85      0.53425761     0.010355907
      8133.98      0.50844503     0.010361315
      8142.11      0.48478336     0.010357113
      8150.25      0.46311036     0.010346553
      8158.41      0.44060338     0.010326646
      8166.56      0.41857367     0.010230411
      8174.73      0.39783210     0.010203710
      8182.91      0.38024075     0.010185290
      8191.09      0.36328093     0.010172513
      8199.28      0.34492408     0.010153008
      8207.48      0.32764847     0.010128415
      8215.69      0.31111554     0.010101166
      8223.91      0.30060846     0.010009422
      8232.13      0.29593513    0.0099782069
      8240.36      0.29314043    0.0099527498
      8248.60      0.29325630     0.010011281
      8256.85      0.29309939     0.010008021
      8265.11      0.29288904    0.0099704357
      8273.37      0.29250816    0.0098558650
      8281.65      0.29207078    0.0098130455
      8289.93      0.29078398    0.0097748191
      8298.22      0.29004476    0.0097406712
      8306.52      0.28855508    0.0097140461
      8314.83      0.28263016    0.0096250655
      8323.14      0.27876601    0.0095969802
      8331.46      0.27614229    0.0096286477
      8339.80      0.28178199    0.0096114953
      8348.13      0.29698636    0.0095993065
      8356.48      0.32490008    0.0095299830
      8364.84      0.36812297    0.0095181534
      8373.21      0.42843685    0.0095084085
      8381.58      0.51018141    0.0095009444
      8389.96      0.61556436    0.0094984911
      8398.35      0.73748238    0.0094935064
      8406.75      0.87392287    0.0094903449
      8415.16       1.0165082    0.0094880721
      8423.57       1.1566171    0.0094320540
      8432.00       1.2828598    0.0094324323
      8440.43       1.4030846    0.0094902927
      8448.87       1.5073149    0.0094900596
      8457.32       1.6045686    0.0094351829
      8465.78       1.7030459    0.0094352766
      8474.25       1.8019939    0.0094346255
      8482.72       1.8948071    0.0094879191
      8491.20       1.9881632    0.0094293949
      8499.69       2.0908860    0.0094258345
      8508.19       2.2062242    0.0094225927
      8516.70       2.3473073    0.0093636032
      8525.22       2.5315794    0.0094162956
      8533.75       2.7688127    0.0094129984
      8542.28       3.0501794    0.0093546150
      8550.82       3.3265231    0.0093505168
      8559.37       3.6094357    0.0093478094
      8567.93       3.8963040    0.0094028117
      8576.50       4.1691826    0.0093473266
      8585.08       4.4082716    0.0093453472
      8593.66       4.6127522    0.0093440081
      8602.26       4.7779941    0.0093443529
      8610.86       4.8912545    0.0093414997
      8619.47       4.9607504    0.0092857642
      8628.09       4.9918224    0.0093373345
      8636.72       4.9909730    0.0093325805
      8645.36       4.9558002    0.0092750522
      8654.00       4.8912638    0.0092710292
      8662.66       4.7873212    0.0093194858
      8671.32       4.6780744    0.0092620992
      8679.99       4.5710536    0.0092586205
      8688.67       4.4658988    0.0092556536
      8697.36       4.3612669    0.0092520019
      8706.06       4.2500087    0.0092488959
      8714.76       4.1312254    0.0091927206
      8723.48       4.0161642    0.0092434716
      8732.21       3.9080765    0.0091880738
      8740.93       3.7960473    0.0091841484
      8749.68       3.6750561    0.0092344692
      8758.43       3.5299972    0.0091782022
      8767.19       3.3744201    0.0091744174
      8775.96       3.2104916    0.0091728019
      8784.73       3.0548233    0.0091693118
      8793.52       2.8987499    0.0091172834
      8802.31       2.7547079    0.0091671870
      8811.11       2.6147064    0.0091681811
      8819.92       2.4673117    0.0091776479
      8828.75       2.3151819    0.0091842137
      8837.57       2.1569310    0.0091473900
      8846.41       1.9999928    0.0092217756
      8855.26       1.8427225    0.0092116653
      8864.12       1.6966350    0.0092538966
      8872.98       1.5665403    0.0093314898
      8881.85       1.4513432    0.0094149718
      8890.73       1.3537882    0.0095368927
      8899.63       1.2647162    0.0096443034
      8908.52       1.1818159    0.0097217978
      8917.43       1.1069135    0.0098962637
      8926.35       1.0496606    0.0099394781
      8935.28       1.0064387     0.010060230
      8944.22      0.97933629     0.010004776
      8953.16      0.95946490     0.010035364
      8962.11      0.94786961    0.0099129201
      8971.08      0.94766715    0.0098519484
      8980.05      0.95176367    0.0097935144
      8989.03      0.96013632    0.0097676013
      8998.02      0.96489332    0.0097528215
      9007.02      0.96173023    0.0097519016
      9016.02      0.96009122    0.0097885214
      9025.04      0.95013063    0.0097702603
      9034.07      0.94039692    0.0098660991
      9043.10      0.93410126    0.0098376002
      9052.14      0.93205009    0.0099107068
      9061.20      0.92637774    0.0098501685
      9070.26      0.91978829    0.0098912223
      9079.33      0.90686684    0.0098175442
      9088.41      0.88795292    0.0097870403
      9097.50      0.88577363    0.0097564451
      9106.60      0.89049213    0.0096972338
      9115.70      0.89710939    0.0096275878
      9124.82      0.90673641    0.0095318663
      9133.94      0.92483013    0.0094028469
      9143.08      0.94379020    0.0093837748
      9152.22      0.96008041    0.0092747674
      9161.37      0.97999604    0.0092965571
      9170.54       1.0009849    0.0092397906
      9179.71       1.0209899    0.0092649701
      9188.89       1.0363825    0.0093184840
      9198.08       1.0464535    0.0094343869
      9207.28       1.0432404    0.0095474717
      9216.48       1.0314328    0.0098290038
      9225.70       1.0076984     0.010202155
      9234.92      0.97700296     0.010567682
      9244.16      0.93979536     0.011155639
      9253.40      0.89809836     0.011648669
      9262.66      0.85497626     0.012314262
      9271.92      0.83109552     0.012981763
      9281.20      0.81055867     0.013333893
      9290.48      0.78624377     0.013634263
      9299.77      0.77076015     0.013682047
      9309.07      0.76300000     0.013528665
      9318.38      0.75639108     0.013223277
      9327.69      0.75167950     0.012805693
      9337.02      0.75115677     0.012591714
      9346.36      0.75337632     0.012310758
      9355.71      0.75024317     0.012175783
      9365.07      0.73839807     0.012182749
      9374.43      0.72848509     0.012175055
      9383.80      0.70134832     0.012210348
      9393.19      0.67528546     0.012235144
      9402.58      0.66247285     0.012248667
      9411.98      0.65322616     0.012188871
      9421.40      0.63933110     0.012014272
      9430.82      0.62553952     0.011790618
      9440.25      0.60923649     0.011728758
      9449.69      0.59133682     0.011591599
      9459.14      0.58376996     0.011396471
      9468.60      0.57772483     0.011267091
      9478.07      0.56750938     0.011129557
      9487.55      0.55241622     0.011011206
      9497.04      0.53538428     0.010862728
      9506.53      0.52001872     0.010695344
      9516.04      0.50802586     0.010483674
      9525.56      0.49732352     0.010297544
      9535.08      0.48582950     0.010178809
      9544.62      0.47653714    0.0099801340
      9554.16      0.47355653    0.0097633219
      9563.72      0.46813740    0.0095644667
      9573.29      0.46785306    0.0093536713
      9582.85      0.47761853    0.0092225709
      9592.44      0.48501761    0.0089804656
      9602.03      0.48559682    0.0087637781
      9611.63      0.48625283    0.0085622327
      9621.25      0.48666470    0.0083956443
      9630.87      0.49032381    0.0082315156
      9640.50      0.49637346    0.0081203699
      9650.14      0.50067016    0.0080870793
      9659.79      0.50293739    0.0080306616
      9669.45      0.50022645    0.0079540093
      9679.12      0.49827811    0.0079284275
      9688.80      0.49731036    0.0078980830
      9698.49      0.49711642    0.0078570086
      9708.19      0.49754356    0.0077935735
      9717.90      0.49584379    0.0076855230
      9727.62      0.49047975    0.0076061493
      9737.34      0.48447240    0.0075217409
      9747.08      0.48127584    0.0074837752
      9756.83      0.48224579    0.0073993315
      9766.59      0.48100943    0.0073203170
      9776.35      0.47919931    0.0072145105
      9786.13      0.47282854    0.0071423309
      9795.92      0.46848325    0.0070729561
      9805.71      0.46450437    0.0070070255
      9815.52      0.46023026    0.0069509906
      9825.34      0.45969149    0.0069015924
      9835.17      0.45746511    0.0068523973
      9845.00      0.45297344    0.0067743669
      9854.84      0.44679524    0.0067310489
      9864.70      0.43970197    0.0066913079
      9874.56      0.43021481    0.0066513934
      9884.44      0.42125940    0.0066126093
      9894.32      0.41075611    0.0065744303
      9904.22      0.39673685    0.0065383131
      9914.13      0.38453083    0.0065030858
      9924.04      0.37422271    0.0064678672
      9933.96      0.36846256    0.0064330788
      9943.90      0.36168483    0.0063681981
      9953.84      0.35342691    0.0063323729
      9963.79      0.35068179    0.0062966285
      9973.76      0.34573930    0.0062603481
      9983.74      0.34700424    0.0061622747
      9993.72      0.34808370    0.0060929145
