# starting wavelength =        5446.4800
# ending wavelength =        6816.2000
# O2 telluric scale =        0
# O2 telluric shift =        0
# H2O telluric scale =        0
# H2O telluric shift =        0
      5447.91       1.0231546    0.0067154120
      5453.36       1.0084831    0.0056592452
      5458.81      0.99630049    0.0048100584
      5464.27      0.98681282    0.0041328377
      5469.73      0.97991376    0.0035215665
      5475.20      0.97482677    0.0031191824
      5480.68      0.97108452    0.0028111786
      5486.16      0.96910658    0.0025783647
      5491.65      0.96741692    0.0024298032
      5497.14      0.96773659    0.0022945926
      5502.64      0.96902470    0.0021932489
      5508.14      0.96931201    0.0021184418
      5513.65      0.97095313    0.0020643815
      5519.16      0.97238017    0.0020228669
      5524.68      0.97263594    0.0019911385
      5530.20      0.97545874    0.0020143412
      5535.73      0.97810645    0.0020290079
      5541.27      0.98198641    0.0020487081
      5546.81      0.98600021    0.0020862834
      5552.36      0.98824779    0.0021162009
      5557.91      0.98923461    0.0021519116
      5563.47      0.98957606    0.0021936402
      5569.04      0.98837663    0.0022556248
      5574.60      0.98550716    0.0023108141
      5580.18      0.98300520    0.0023731348
      5585.76      0.97859159    0.0024152960
      5591.35      0.97176103    0.0024468458
      5596.94      0.96538953    0.0024823405
      5602.53      0.96227424    0.0024929653
      5608.14      0.95992239    0.0025493907
      5613.75      0.95781204    0.0025940541
      5619.36      0.95734645    0.0026420785
      5624.98      0.95526739    0.0026933489
      5630.60      0.95521608    0.0027477880
      5636.23      0.95529528    0.0027705661
      5641.87      0.95569363    0.0028297300
      5647.51      0.95558924    0.0028915693
      5653.16      0.95559664    0.0029558610
      5658.82      0.95519251    0.0030226071
      5664.47      0.95762332    0.0031058290
      5670.14      0.95899201    0.0031765137
      5675.81      0.95946007    0.0032075282
      5681.48      0.96055393    0.0032808805
      5687.17      0.96241546    0.0033557303
      5692.85      0.96633897    0.0034320985
      5698.55      0.96868181    0.0035097211
      5704.25      0.97182315    0.0035884130
      5709.95      0.97580723    0.0036870443
      5715.66      0.97998204    0.0038364699
      5721.38      0.98382429    0.0039757671
      5727.10      0.98735134    0.0042343427
      5732.83      0.98711534    0.0045208362
      5738.56      0.98796366    0.0050472714
      5744.30      0.98794578    0.0056612946
      5750.04      0.98819253    0.0050173182
      5755.79      0.99008581    0.0052135357
      5761.55      0.99093346    0.0056075970
      5767.31      0.98848632    0.0061156299
      5773.08      0.98620512    0.0067028440
      5778.85      0.98657295    0.0070873427
      5784.63      0.98913518    0.0078434651
      5790.41      0.98879390    0.0078860547
      5796.21      0.99054031    0.0076869729
      5802.00      0.99458898    0.0073370169
      5807.81      0.99360093    0.0069528673
      5813.61      0.99054912    0.0066211853
      5819.43      0.98809181    0.0062744658
      5825.25      0.98554121    0.0077158571
      5831.07      0.98259358    0.0069213721
      5836.90      0.97883424    0.0066010083
      5842.74      0.97425697    0.0065588354
      5848.58      0.96886102    0.0067600590
      5854.43      0.96264724    0.0073527984
      5860.29      0.95764076    0.0067634502
      5866.15      0.95583100    0.0066562521
      5872.01      0.95212898    0.0070770170
      5877.89      0.94763987    0.0076301375
      5883.76      0.94859101    0.0082581792
      5889.65      0.95214340    0.0088623003
      5895.54      0.95786052    0.0091469819
      5901.43      0.96725155    0.0093075201
      5907.34      0.97169817    0.0088814778
      5913.24      0.97779715    0.0083082572
      5919.16      0.98211457    0.0075248821
      5925.08      0.98706247    0.0070514248
      5931.00      0.99134547    0.0067283884
      5936.93      0.99595862    0.0067349585
      5942.87      0.99972695    0.0074151374
      5948.81       1.0045196    0.0065873204
      5954.76       1.0098555    0.0061797141
      5960.72       1.0138114    0.0058166924
      5966.68       1.0159444    0.0055883943
      5972.64       1.0166511    0.0053874338
      5978.62       1.0182589    0.0052667523
      5984.60       1.0206070    0.0052242014
      5990.58       1.0211137    0.0051785795
      5996.57       1.0220153    0.0051301285
      6002.57       1.0219756    0.0050790118
      6008.57       1.0204329    0.0049735332
      6014.58       1.0182854    0.0049171412
      6020.60       1.0148699    0.0048585459
      6026.62       1.0150151    0.0047978681
      6032.65       1.0138461    0.0047353306
      6038.68       1.0119934    0.0047005912
      6044.72       1.0104014    0.0046339438
      6050.76       1.0086274    0.0045658529
      6056.81       1.0065000    0.0044963861
      6062.87       1.0042343    0.0043782614
      6068.93       1.0044180    0.0043065523
      6075.00       1.0024609    0.0042341532
      6081.08       1.0011497    0.0041610675
      6087.16       1.0006211    0.0040876818
      6093.25       1.0015964    0.0040149290
      6099.34      0.99890477    0.0039436139
      6105.44       1.0019981    0.0038706820
      6111.54       1.0018289    0.0037535890
      6117.66      0.99963185    0.0036820304
      6123.78      0.99856598    0.0036131226
      6129.90      0.99763915    0.0035648530
      6136.03      0.99838568    0.0034994819
      6142.17       1.0005584    0.0034354341
      6148.31       1.0008218    0.0033717519
      6154.46       1.0008148    0.0032706410
      6160.61       1.0019644    0.0032066254
      6166.77       1.0037846    0.0031420477
      6172.94       1.0037612    0.0030767462
      6179.11       1.0050175    0.0030111553
      6185.29       1.0048625    0.0029101087
      6191.48       1.0025127    0.0028598704
      6197.67      0.99929399    0.0027975150
      6203.87      0.99762508    0.0027381123
      6210.07      0.99602511    0.0026824228
      6216.28      0.99378067    0.0026306363
      6222.50      0.99630596    0.0025530878
      6228.72      0.99682560    0.0025072255
      6234.95      0.99629608    0.0024782290
      6241.19      0.99534332    0.0024396524
      6247.42      0.99553436    0.0024044340
      6253.67      0.99495384    0.0023496116
      6259.93      0.99379494    0.0023218574
      6266.19      0.99159074    0.0022977817
      6272.46      0.98881645    0.0022774721
      6278.73      0.98644923    0.0022577808
      6285.01      0.98453519    0.0022460705
      6291.29      0.97925639    0.0022384920
      6297.58      0.97270749    0.0022349239
      6303.88      0.96466025    0.0022205237
      6310.19      0.95934662    0.0022262888
      6316.50      0.94924687    0.0022552727
      6322.81      0.94481049    0.0022709916
      6329.14      0.94232678    0.0022794627
      6335.47      0.94403257    0.0023054357
      6341.80      0.94886002    0.0023358294
      6348.14      0.95474062    0.0023948498
      6354.49      0.96307438    0.0024238449
      6360.85      0.97101318    0.0024685517
      6367.21      0.98144783    0.0025173625
      6373.57      0.99227306    0.0025700470
      6379.95       1.0046982    0.0026453374
      6386.33       1.0157504    0.0027059935
      6392.72       1.0260650    0.0027706037
      6399.11       1.0358757    0.0028289976
      6405.51       1.0439593    0.0029359755
      6411.92       1.0464251    0.0030126821
      6418.32       1.0461548    0.0030926063
      6424.74       1.0478381    0.0031637391
      6431.17       1.0475827    0.0032876203
      6437.60       1.0409129    0.0033746763
      6444.04       1.0398304    0.0034524628
      6450.48       1.0382414    0.0035435101
      6456.94       1.0396539    0.0036814977
      6463.39       1.0385194    0.0037625891
      6469.85       1.0375521    0.0038567469
      6476.33       1.0378040    0.0039529307
      6482.80       1.0339443    0.0040858134
      6489.28       1.0322933    0.0041834860
      6495.77       1.0332618    0.0042819424
      6502.27       1.0274532    0.0043716603
      6508.77       1.0310652    0.0045250313
      6515.28       1.0369866    0.0046146426
      6521.80       1.0330931    0.0067521638
      6528.32       1.0458242    0.0068909845
      6534.85       1.0491523    0.0069555117
      6541.38       1.0782702    0.0072184977
      6547.92       1.1181248    0.0074281998
      6554.47       1.1554468    0.0076667138
      6561.03       1.2093301    0.0081012299
      6567.59       1.2507542    0.0081757903
      6574.16       1.2676657    0.0081801046
      6580.73       1.2666968    0.0082514545
      6587.31       1.2443462    0.0080688402
      6593.90       1.2046429    0.0081691555
      6600.50       1.1697006    0.0085032129
      6607.10       1.1403017    0.0083218919
      6613.70       1.1115572    0.0083984069
      6620.32       1.0997961    0.0085108888
      6626.94       1.0888602    0.0085684984
      6633.57       1.0746773    0.0061756812
      6640.20       1.0630656    0.0061461563
      6646.84       1.0527209    0.0062113033
      6653.49       1.0518662    0.0063262272
      6660.14       1.0498654    0.0063446654
      6666.80       1.0471900    0.0063935236
      6673.47       1.0457487    0.0065208016
      6680.14       1.0497249    0.0065035988
      6686.82       1.0479539    0.0062406649
      6693.51       1.0447784    0.0060740147
      6700.20       1.0431766    0.0059727217
      6706.90       1.0407788    0.0058795352
      6713.61       1.0370655    0.0057416295
      6720.32       1.0337936    0.0056230431
      6727.05       1.0335289    0.0056653633
      6733.77       1.0319562    0.0054637288
      6740.51       1.0304832    0.0051518500
      6747.25       1.0291511    0.0049936353
      6754.00       1.0276687    0.0048462523
      6760.75       1.0264044    0.0046603912
      6767.51       1.0251015    0.0045403891
      6774.28       1.0240293    0.0044420873
      6781.05       1.0225116    0.0044507788
      6787.84       1.0208308    0.0044630167
      6794.62       1.0196866    0.0045499594
      6801.42       1.0190407    0.0046785120
      6808.22       1.0189700    0.0050289057
      6815.03       1.0199977    0.0057321706
