# starting wavelength =        3247.6800
# ending wavelength =        10302.300
# O2 telluric scale =        0
# O2 telluric shift =        0
# H2O telluric scale =        0
# H2O telluric shift =        0
      3249.39     0.079478523     0.016659170
      3252.64     0.086967770     0.014017833
      3255.89     0.091701429     0.011983993
      3259.14     0.095372195     0.010041122
      3262.40     0.099169422    0.0088812467
      3265.67      0.10133985    0.0079868274
      3268.93      0.10329043    0.0074749814
      3272.20      0.10222519    0.0068873933
      3275.47     0.099804001    0.0063197225
      3278.75      0.10008610    0.0059820110
      3282.03     0.099356216    0.0057084348
      3285.31      0.10013970    0.0055512973
      3288.60      0.10149295    0.0053523231
      3291.88      0.10242940    0.0051826168
      3295.18      0.10320960    0.0050515129
      3298.47      0.10400294    0.0049283064
      3301.77      0.10313134    0.0048631834
      3305.07      0.10202187    0.0047600502
      3308.38      0.10241934    0.0046657925
      3311.69      0.10169548    0.0046505083
      3315.00      0.10145267    0.0046269688
      3318.31     0.098206041    0.0045722826
      3321.63     0.097254472    0.0045887442
      3324.95     0.093957850    0.0045648163
      3328.28     0.094553113    0.0045412093
      3331.61     0.094675390    0.0045263299
      3334.94     0.095362197    0.0045019261
      3338.27     0.093138058    0.0044779555
      3341.61     0.091301942    0.0044937960
      3344.95     0.090991383    0.0044386781
      3348.30     0.091111922    0.0044557583
      3351.65     0.092569833    0.0044300424
      3355.00     0.094043024    0.0044047216
      3358.35     0.095379328    0.0043921357
      3361.71     0.095153597    0.0043660512
      3365.07     0.096076732    0.0043404852
      3368.44     0.093934817    0.0043556298
      3371.81     0.095108712    0.0043020704
      3375.18     0.096984855    0.0042762968
      3378.56     0.098606507    0.0042907027
      3381.94      0.10176517    0.0042656235
      3385.32      0.10111805    0.0042410339
      3388.70      0.10213628    0.0042259968
      3392.09      0.10242956    0.0042007167
      3395.48      0.10100129    0.0041758849
      3398.88      0.10420174    0.0041906100
      3402.28      0.10436617    0.0041362801
      3405.68      0.10531108    0.0041113061
      3409.09      0.10743505    0.0040868142
      3412.49      0.10702294    0.0041007648
      3415.91      0.10642171    0.0040754607
      3419.32      0.10689552    0.0040228581
      3422.74      0.10627825    0.0040373505
      3426.17      0.10614668    0.0040119840
      3429.59      0.10632050    0.0039871545
      3433.02      0.10762979    0.0040010726
      3436.45      0.10822074    0.0039496801
      3439.89      0.10877761    0.0039248923
      3443.33      0.10984117    0.0039381754
      3446.78      0.11018373    0.0039141933
      3450.22      0.11058289    0.0038906136
      3453.67      0.11173509    0.0038397084
      3457.13      0.11115936    0.0038526861
      3460.58      0.11204620    0.0038292168
      3464.04      0.11267392    0.0038062956
      3467.51      0.11341989    0.0038202238
      3470.98      0.11269303    0.0037968000
      3474.45      0.11335763    0.0037468356
      3477.92      0.11460570    0.0037620357
      3481.40      0.11641692    0.0037387793
      3484.88      0.11595702    0.0037160054
      3488.37      0.11754171    0.0036938495
      3491.86      0.11858174    0.0037082478
      3495.35      0.11971463    0.0036603758
      3498.84      0.12014109    0.0036384568
      3502.34      0.11901618    0.0036171041
      3505.84      0.11845812    0.0036314856
      3509.35      0.11904504    0.0036110243
      3512.86      0.11926302    0.0035911274
      3516.37      0.11965362    0.0035787128
      3519.89      0.12072992    0.0035585830
      3523.41      0.12205102    0.0035390844
      3526.93      0.12123603    0.0035912645
      3530.46      0.12265411    0.0036508377
      3533.99      0.12350750    0.0036071008
      3537.53      0.12287920    0.0035140840
      3541.06      0.12425661    0.0034556857
      3544.60      0.12637432    0.0034782055
      3548.15      0.12643090    0.0034746835
      3551.70      0.12666337    0.0034843460
      3555.25      0.12717052    0.0035019104
      3558.80      0.12845362    0.0035569252
      3562.36      0.12930134    0.0035816280
      3565.92      0.12810646    0.0036051904
      3569.49      0.12739161    0.0035850093
      3573.06      0.12762746    0.0036398577
      3576.64      0.13150902    0.0036480329
      3580.21      0.13227097    0.0036470560
      3583.79      0.13195388    0.0036330351
      3587.38      0.13227742    0.0036516358
      3590.96      0.13179534    0.0036192932
      3594.55      0.13246037    0.0035788869
      3598.15      0.13533155    0.0035327458
      3601.75      0.13557357    0.0034964000
      3605.35      0.13652847    0.0034450750
      3608.96      0.13627643    0.0033946919
      3612.56      0.13845479    0.0033478286
      3616.18      0.14147556    0.0033077160
      3619.79      0.14333294    0.0033010238
      3623.41      0.14537332    0.0032868193
      3627.04      0.14755576    0.0032989111
      3630.66      0.15150452    0.0033580280
      3634.29      0.15265648    0.0034022392
      3637.93      0.15401279    0.0033234655
      3641.57      0.15507790    0.0032551386
      3645.21      0.15761340    0.0032499351
      3648.86      0.15983796    0.0032455495
      3652.50      0.16168889    0.0032730114
      3656.16      0.16481199    0.0032690357
      3659.81      0.16644135    0.0032657830
      3663.47      0.16731794    0.0032632731
      3667.14      0.16742211    0.0032613907
      3670.80      0.16916501    0.0032903008
      3674.48      0.16934801    0.0032896910
      3678.15      0.17026640    0.0032896914
      3681.83      0.17025597    0.0032903962
      3685.51      0.17137841    0.0032916685
      3689.20      0.17235970    0.0033230563
      3692.88      0.17270539    0.0033246016
      3696.58      0.17353594    0.0033268712
      3700.27      0.17342356    0.0033296482
      3703.98      0.17304632    0.0032989846
      3707.68      0.17335517    0.0033346200
      3711.39      0.17328829    0.0033380560
      3715.10      0.17336709    0.0033421590
      3718.81      0.17289252    0.0033466499
      3722.53      0.17106158    0.0033517780
      3726.26      0.17113126    0.0033878364
      3729.98      0.17107310    0.0033938485
      3733.71      0.16952118    0.0034003857
      3737.45      0.17047438    0.0034073243
      3741.18      0.17231363    0.0034147641
      3744.93      0.17517737    0.0034225698
      3748.67      0.17706575    0.0034634708
      3752.42      0.18170423    0.0034713884
      3756.17      0.18216012    0.0034798010
      3759.93      0.18243202    0.0034885928
      3763.69      0.18410820    0.0034977617
      3767.45      0.18585267    0.0035072745
      3771.22      0.18716827    0.0035495679
      3774.99      0.19231309    0.0035597423
      3778.77      0.19736331    0.0035703279
      3782.54      0.19914428    0.0035811198
      3786.33      0.20185300    0.0035922784
      3790.11      0.20541029    0.0036036062
      3793.90      0.20469101    0.0036153258
      3797.70      0.20328575    0.0036624300
      3801.50      0.20078570    0.0036740768
      3805.30      0.19702766    0.0036859510
      3809.10      0.19407556    0.0036980186
      3812.91      0.19288187    0.0037102758
      3816.73      0.19013707    0.0037226943
      3820.54      0.18873803    0.0037353654
      3824.36      0.18712868    0.0037836881
      3828.19      0.18738675    0.0037968353
      3832.02      0.18765416    0.0038099518
      3835.85      0.18906731    0.0038233076
      3839.68      0.19163412    0.0038366258
      3843.52      0.19155872    0.0038979169
      3847.37      0.19265881    0.0039115364
      3851.22      0.19286338    0.0039253458
      3855.07      0.19454120    0.0039783455
      3858.92      0.19757933    0.0039923131
      3862.78      0.20014329    0.0040062711
      3866.64      0.20258294    0.0040203007
      3870.51      0.20467994    0.0040341801
      3874.38      0.20676635    0.0040480962
      3878.26      0.20705597    0.0040618346
      3882.13      0.20677061    0.0040755754
      3886.02      0.20854231    0.0041330366
      3889.90      0.20907480    0.0042505431
      3893.79      0.21189901    0.0043950943
      3897.69      0.21473178    0.0045791260
      3901.59      0.21385218    0.0042550799
      3905.49      0.21409815    0.0042494834
      3909.39      0.21572786    0.0043794778
      3913.30      0.21750569    0.0045177594
      3917.22      0.22177434    0.0046772417
      3921.13      0.22605800    0.0049298917
      3925.06      0.22754291    0.0052595798
      3928.98      0.22502635    0.0057046583
      3932.91      0.22224966    0.0063289577
      3936.84      0.22346274    0.0072357640
      3940.78      0.22603347    0.0067361613
      3944.72      0.22849546    0.0055683637
      3948.67      0.23160993    0.0057180258
      3952.61      0.23512336    0.0059742450
      3956.57      0.24083961    0.0061249993
      3960.52      0.24662417    0.0062803806
      3964.48      0.25599782    0.0083422561
      3968.45      0.26536085    0.0083222247
      3972.42      0.27046500    0.0071329878
      3976.39      0.27567164    0.0062977930
      3980.37      0.28118568    0.0058896641
      3984.35      0.28465990    0.0055820353
      3988.33      0.29059772    0.0053134561
      3992.32      0.29539605    0.0051225412
      3996.31      0.30034666    0.0051562810
      4000.31      0.30189845    0.0056101227
      4004.31      0.30208617    0.0052501886
      4008.31      0.30180244    0.0049948876
      4012.32      0.30264996    0.0047883393
      4016.33      0.30404405    0.0046322273
      4020.35      0.30572526    0.0045676568
      4024.37      0.30729669    0.0045701318
      4028.40      0.30853904    0.0045720648
      4032.42      0.30864056    0.0045735568
      4036.46      0.30976582    0.0045745267
      4040.50      0.31286118    0.0045752205
      4044.54      0.31204590    0.0045753295
      4048.58      0.31125387    0.0045751886
      4052.63      0.31434284    0.0045745986
      4056.68      0.31728195    0.0045735948
      4060.74      0.32190754    0.0045163146
      4064.80      0.32462162    0.0045135242
      4068.86      0.32467929    0.0045103610
      4072.93      0.32340525    0.0045068668
      4077.01      0.32034550    0.0045030191
      4081.08      0.31773535    0.0044988820
      4085.17      0.31651142    0.0044945106
      4089.25      0.31581534    0.0045457992
      4093.34      0.31625089    0.0045405735
      4097.43      0.31593085    0.0045350356
      4101.53      0.31614478    0.0044760198
      4105.63      0.31552926    0.0044688394
      4109.74      0.31364203    0.0044615438
      4113.85      0.31499073    0.0044538777
      4117.96      0.31655080    0.0044461117
      4122.08      0.31722549    0.0044380155
      4126.20      0.31889018    0.0044298565
      4130.33      0.32427578    0.0044214028
      4134.46      0.32851293    0.0044130386
      4138.59      0.33128283    0.0043529829
      4142.73      0.33022078    0.0043964923
      4146.88      0.32840267    0.0043860485
      4151.02      0.32690091    0.0043756479
      4155.18      0.32845980    0.0043650230
      4159.33      0.33196675    0.0043544604
      4163.49      0.33488311    0.0043437113
      4167.65      0.33548373    0.0042821209
      4171.82      0.33632548    0.0042715044
      4175.99      0.33829128    0.0042610998
      4180.17      0.34026381    0.0042504653
      4184.35      0.34108830    0.0042400874
      4188.54      0.34273157    0.0042750813
      4192.72      0.34479853    0.0042629841
      4196.92      0.34254059    0.0042003738
      4201.11      0.34079437    0.0041886449
      4205.31      0.33899443    0.0041767691
      4209.52      0.34202102    0.0041652349
      4213.73      0.34402658    0.0041536169
      4217.94      0.34515773    0.0041423829
      4222.16      0.34394606    0.0041239066
      4226.38      0.34392437    0.0041111807
      4230.61      0.34767434    0.0040985698
      4234.84      0.35397707    0.0040863910
      4239.08      0.35473376    0.0040742116
      4243.32      0.35597865    0.0040625135
      4247.56      0.35954248    0.0039988115
      4251.81      0.36290387    0.0040310261
      4256.06      0.36719063    0.0040180921
      4260.32      0.36940026    0.0040055787
      4264.58      0.36974124    0.0039933263
      4268.84      0.36703800    0.0039321109
      4273.11      0.36099596    0.0039188021
      4277.38      0.35264628    0.0039059016
      4281.66      0.34756156    0.0039373794
      4285.94      0.34751768    0.0039251508
      4290.23      0.34761387    0.0038658393
      4294.52      0.34887869    0.0038526625
      4298.81      0.34978419    0.0038398532
      4303.11      0.34772913    0.0038275542
      4307.42      0.34689783    0.0038589279
      4311.72      0.35046246    0.0038013441
      4316.04      0.35182449    0.0037884984
      4320.35      0.35097574    0.0037761895
      4324.67      0.35659419    0.0037644557
      4329.00      0.36547913    0.0037105601
      4333.33      0.37238921    0.0037400622
      4337.66      0.38030983    0.0037279334
      4342.00      0.38830385    0.0037165117
      4346.34      0.39282231    0.0036635682
      4350.69      0.39494399    0.0036535114
      4355.04      0.39399743    0.0036830369
      4359.39      0.39368957    0.0036721553
      4363.75      0.39773629    0.0036618905
      4368.12      0.40046578    0.0036111932
      4372.48      0.40160170    0.0036025524
      4376.86      0.40371572    0.0036320068
      4381.23      0.40204842    0.0036225955
      4385.61      0.40110141    0.0035734632
      4390.00      0.40236014    0.0035658455
      4394.39      0.40479475    0.0035589765
      4398.79      0.40738450    0.0035485553
      4403.18      0.41082256    0.0035411970
      4407.59      0.41525637    0.0035346627
      4412.00      0.42139854    0.0035289619
      4416.41      0.42887735    0.0035206707
      4420.82      0.43424350    0.0035146962
      4425.25      0.43828070    0.0035096106
      4429.67      0.43835140    0.0035054280
      4434.10      0.43638315    0.0034992049
      4438.54      0.43491388    0.0034947017
      4442.97      0.43370912    0.0034911265
      4447.42      0.43410082    0.0034492858
      4451.86      0.43338555    0.0034454682
      4456.32      0.43157770    0.0034818066
      4460.77      0.42974174    0.0034800889
      4465.24      0.42869297    0.0034399322
      4469.70      0.43090703    0.0034379522
      4474.17      0.43329595    0.0034765550
      4478.65      0.43594132    0.0035650013
      4483.12      0.44098873    0.0035170840
      4487.61      0.44523274    0.0034545409
      4492.09      0.44892378    0.0034603744
      4496.59      0.45237694    0.0035107640
      4501.08      0.45489039    0.0035755547
      4505.58      0.45621027    0.0036855374
      4510.09      0.45596423    0.0037341132
      4514.60      0.45275659    0.0037937187
      4519.12      0.45162199    0.0038395075
      4523.63      0.44879747    0.0038502678
      4528.16      0.44880744    0.0038206163
      4532.69      0.45111453    0.0037751853
      4537.22      0.45408667    0.0037179085
      4541.76      0.45760991    0.0036516584
      4546.30      0.45960785    0.0035895963
      4550.85      0.46296412    0.0035155180
      4555.40      0.46816453    0.0035367940
      4559.95      0.47330136    0.0035734823
      4564.51      0.48066129    0.0037066592
      4569.08      0.48593849    0.0036107769
      4573.65      0.49402901    0.0035437306
      4578.22      0.50162195    0.0035555800
      4582.80      0.50899999    0.0036104328
      4587.38      0.51728569    0.0035891765
      4591.97      0.52541613    0.0036030808
      4596.56      0.53115458    0.0036185868
      4601.16      0.53688659    0.0036416290
      4605.76      0.54315934    0.0036577422
      4610.37      0.54985064    0.0036755335
      4614.98      0.55831830    0.0037017111
      4619.59      0.56741775    0.0037200105
      4624.21      0.57596527    0.0037045928
      4628.84      0.58085602    0.0037692427
      4633.47      0.58506447    0.0037900513
      4638.10      0.59242857    0.0037761692
      4642.74      0.59927284    0.0038447993
      4647.38      0.60679955    0.0038682668
      4652.03      0.61608521    0.0038558968
      4656.68      0.62529664    0.0039287106
      4661.34      0.63377481    0.0039192156
      4666.00      0.64002566    0.0039438858
      4670.67      0.64448547    0.0040211083
      4675.33      0.64589491    0.0040130878
      4680.01      0.64866076    0.0040924262
      4684.69      0.65060261    0.0040872127
      4689.38      0.65264356    0.0041156680
      4694.07      0.65070010    0.0041999204
      4698.76      0.64877169    0.0041958459
      4703.46      0.64777424    0.0042274952
      4708.16      0.64761445    0.0042813048
      4712.87      0.64816424    0.0043139421
      4717.58      0.64792538    0.0043719155
      4722.30      0.65175973    0.0044056452
      4727.03      0.65543918    0.0044418259
      4731.75      0.65927507    0.0045026106
      4736.48      0.66197266    0.0045399396
      4741.22      0.66302091    0.0045447648
      4745.96      0.66326136    0.0046433593
      4750.71      0.65832186    0.0046487647
      4755.46      0.65231565    0.0047519269
      4760.22      0.64696589    0.0047577742
      4764.97      0.63901291    0.0048025277
      4769.74      0.63339154    0.0049087575
      4774.51      0.62723974    0.0049172614
      4779.29      0.61787785    0.0050276560
      4784.07      0.60941258    0.0050361174
      4788.85      0.60321689    0.0050853435
      4793.64      0.59918031    0.0051585565
      4798.43      0.59715063    0.0052084807
      4803.23      0.59791596    0.0052840413
      4808.03      0.59878422    0.0053344001
      4812.84      0.60156099    0.0054120280
      4817.66      0.59946003    0.0054626181
      4822.48      0.59686261    0.0054706048
      4827.30      0.60319362    0.0078513966
      4832.12      0.60180211    0.0081073927
      4836.96      0.60297194    0.0080364815
      4841.79      0.60082330    0.0082997831
      4846.63      0.59398974    0.0082224351
      4851.48      0.59284866    0.0082979317
      4856.33      0.59294251    0.0084073753
      4861.19      0.59725175    0.0084808994
      4866.05      0.60661537    0.0085916403
      4870.92      0.61785250    0.0086639171
      4875.79      0.62957409    0.0087750437
      4880.66      0.63700137    0.0088447826
      4885.55      0.63950740    0.0089558739
      4890.43      0.63932178    0.0090222465
      4895.32      0.64109871    0.0091327250
      4900.22      0.63830100    0.0091970013
      4905.12      0.62447986    0.0093060041
      4910.02      0.61998574    0.0093682691
      4914.94      0.62185895    0.0094729549
      4919.85      0.63504046    0.0095334059
      4924.77      0.67978065    0.0067761260
      4929.70      0.69331230    0.0068475563
      4934.62      0.70422327    0.0068866059
      4939.56      0.71456423    0.0069548523
      4944.50      0.71961738    0.0069921026
      4949.44      0.72292564    0.0069751831
      4954.39      0.72869863    0.0070923769
      4959.35      0.72342238    0.0070718095
      4964.31      0.71806984    0.0071864912
      4969.27      0.71191597    0.0073692234
      4974.24      0.68745620    0.0073852383
      4979.22      0.66578260    0.0073461751
      4984.20      0.65819627    0.0073268498
      4989.18      0.65553859    0.0075234337
      4994.17      0.65986910    0.0076642829
      4999.16      0.66844942    0.0078990492
      5004.16      0.68104464    0.0080779670
      5009.17      0.69965307    0.0082744214
      5014.18      0.71905571    0.0083937419
      5019.19      0.74504301    0.0084417607
      5024.21      0.76642255    0.0083731350
      5029.23      0.78917613    0.0082738036
      5034.26      0.80387243    0.0080574649
      5039.30      0.81355523    0.0079546138
      5044.34      0.81421120    0.0077401248
      5049.39      0.81460156    0.0076628635
      5054.43      0.80971049    0.0075319188
      5059.49      0.79942342    0.0076378149
      5064.55      0.77805141    0.0079678773
      5069.61      0.76584612    0.0076928226
      5074.68      0.75140711    0.0075948191
      5079.76      0.74050540    0.0075085836
      5084.84      0.72698224    0.0074955985
      5089.92      0.71592440    0.0074777876
      5095.01      0.70241880    0.0074558188
      5100.11      0.69256388    0.0074341364
      5105.21      0.68407213    0.0074029952
      5110.31      0.67559301    0.0073688464
      5115.42      0.66957191    0.0073367632
      5120.54      0.66503445    0.0074547563
      5125.66      0.65616179    0.0072454985
      5130.79      0.64928554    0.0072127638
      5135.92      0.64292810    0.0071639944
      5141.05      0.63668018    0.0071310602
      5146.20      0.63519859    0.0072193384
      5151.34      0.63347488    0.0071981589
      5156.49      0.63449987    0.0072830464
      5161.65      0.63834874    0.0072717339
      5166.81      0.64262850    0.0071657024
      5171.98      0.65054342    0.0071618115
      5177.15      0.66354453    0.0069578787
      5182.33      0.67277468    0.0068013584
      5187.51      0.68135579    0.0067214947
      5192.70      0.68674168    0.0064832636
      5197.89      0.69094727    0.0063092403
      5203.09      0.69678400    0.0061819615
      5208.29      0.70527701    0.0060509634
      5213.50      0.71604550    0.0059779702
      5218.72      0.72498529    0.0058907918
      5223.93      0.72825630    0.0058209504
      5229.16      0.72730937    0.0056717292
      5234.39      0.72353790    0.0055261460
      5239.62      0.71964308    0.0054877935
      5244.86      0.71705698    0.0053763653
      5250.11      0.72024954    0.0052309469
      5255.36      0.72459042    0.0051879000
      5260.61      0.72982742    0.0050421763
      5265.87      0.73420156    0.0049301233
      5271.14      0.74031363    0.0048187200
      5276.41      0.74513382    0.0047399817
      5281.69      0.74859002    0.0046274755
      5286.97      0.75366210    0.0045161823
      5292.26      0.76081213    0.0044384475
      5297.55      0.76744023    0.0043268925
      5302.85      0.77946879    0.0042169451
      5308.15      0.79567932    0.0040853955
      5313.46      0.81090588    0.0040322533
      5318.77      0.82242208    0.0039249545
      5324.09      0.83530488    0.0037999348
      5329.42      0.84475966    0.0037472041
      5334.75      0.85821805    0.0036442279
      5340.08      0.87208599    0.0035438532
      5345.42      0.88631166    0.0034280388
      5350.77      0.90154219    0.0033784902
      5356.12      0.91692302    0.0032842727
      5361.48      0.92557270    0.0031776532
      5366.83      0.92835694    0.0030888024
      5372.20      0.93075928    0.0030035241
      5377.58      0.93135756    0.0029484025
      5382.95      0.92894479    0.0028680309
      5388.34      0.92800320    0.0027916602
      5393.72      0.92788369    0.0027194421
      5399.12      0.92974787    0.0026731350
      5404.52      0.93216302    0.0026069378
      5409.92      0.93320884    0.0025452039
      5415.33      0.93208465    0.0024881008
      5420.75      0.93086338    0.0024215683
      5426.17      0.93132712    0.0024022727
      5431.60      0.93129831    0.0023571776
      5437.03      0.92962195    0.0023024547
      5442.47      0.92702843    0.0022672888
      5447.91      0.92453387    0.0022612732
      5453.36      0.92171699    0.0022345300
      5458.81      0.91809418    0.0021967395
      5464.27      0.91243517    0.0021803988
      5469.73      0.90675866    0.0021696940
      5475.20      0.90530755    0.0021645947
      5480.68      0.90397549    0.0021623115
      5486.16      0.90276114    0.0021659719
      5491.65      0.90529847    0.0021753806
      5497.14      0.91013456    0.0021905369
      5502.64      0.92013570    0.0022114195
      5508.14      0.93079283    0.0022261899
      5513.65      0.94313831    0.0022555551
      5519.16      0.95779766    0.0022903161
      5524.68      0.97303612    0.0023303801
      5530.20      0.98740718    0.0023463065
      5535.73       1.0014712    0.0023943156
      5541.27       1.0119552    0.0024471581
      5546.81       1.0209182    0.0025167002
      5552.36       1.0269886    0.0025788248
      5557.91       1.0310487    0.0026098759
      5563.47       1.0331322    0.0026784047
      5569.04       1.0316762    0.0027509485
      5574.60       1.0282342    0.0028273287
      5580.18       1.0238721    0.0029074180
      5585.76       1.0137815    0.0030038885
      5591.35       1.0043801    0.0030476477
      5596.94      0.99470160    0.0031356400
      5602.53      0.98680149    0.0032264391
      5608.14      0.98376057    0.0033198540
      5613.75      0.98280822    0.0034157522
      5619.36      0.98004322    0.0034652082
      5624.98      0.97773118    0.0035640008
      5630.60      0.97655955    0.0036645524
      5636.23      0.97738971    0.0037824677
      5641.87      0.97991989    0.0038856463
      5647.51      0.98042813    0.0039900014
      5653.16      0.98101771    0.0040951462
      5658.82      0.98210513    0.0041446336
      5664.47      0.98417174    0.0042498479
      5670.14      0.98434672    0.0043551448
      5675.81      0.98302083    0.0044603988
      5681.48      0.98443305    0.0045654391
      5687.17      0.98506066    0.0046699177
      5692.85      0.98508230    0.0047736538
      5698.55      0.98585792    0.0048380938
      5704.25      0.98745259    0.0049391189
      5709.95      0.98883814    0.0050715415
      5715.66      0.98989731    0.0052770209
      5721.38      0.99202432    0.0055519742
      5727.10      0.99075172    0.0058527690
      5732.83      0.98933537    0.0063556215
      5738.56      0.99112697    0.0069279795
      5744.30      0.99327472    0.0079133279
      5750.04      0.99382984    0.0068838080
      5755.79      0.99358337    0.0071638053
      5761.55      0.99465852    0.0076990849
      5767.31      0.99543480    0.0083735609
      5773.08      0.99391204    0.0091317057
      5778.85      0.99037267    0.0098540210
      5784.63      0.98491178     0.010632337
      5790.41      0.98660937     0.010480178
      5796.21      0.98664066     0.010005299
      5802.00      0.98786663    0.0093898315
      5807.81      0.98484807    0.0087919474
      5813.61      0.97958509    0.0082660087
      5819.43      0.97178644    0.0080010371
      5825.25      0.96675224    0.0096484900
      5831.07      0.96098361    0.0085511119
      5836.90      0.95511402    0.0080874680
      5842.74      0.94913729    0.0079901440
      5848.58      0.94305604    0.0081756759
      5854.43      0.93687310    0.0087955852
      5860.29      0.93174007    0.0078656283
      5866.15      0.93127865    0.0077761399
      5872.01      0.93097319    0.0082325321
      5877.89      0.93554121    0.0088138034
      5883.76      0.94646274    0.0094361831
      5889.65      0.96353612    0.0099515812
      5895.54      0.98317598     0.010190709
      5901.43       1.0029283     0.010017182
      5907.34       1.0178422    0.0093465209
      5913.24       1.0282809    0.0085971513
      5919.16       1.0340643    0.0079016979
      5925.08       1.0392607    0.0073235725
      5931.00       1.0428939    0.0069279639
      5936.93       1.0488866    0.0085417793
      5942.87       1.0499411    0.0071157350
      5948.81       1.0516813    0.0064453654
      5954.76       1.0557341    0.0058698537
      5960.72       1.0605249    0.0055367010
      5966.68       1.0652800    0.0052416984
      5972.64       1.0709431    0.0049633991
      5978.62       1.0710887    0.0048005698
      5984.60       1.0715147    0.0046942346
      5990.58       1.0706927    0.0045863883
      5996.57       1.0704337    0.0044771955
      6002.57       1.0690989    0.0043670665
      6008.57       1.0670341    0.0042561373
      6014.58       1.0643000    0.0041446071
      6020.60       1.0600243    0.0040328698
      6026.62       1.0564005    0.0039212362
      6032.65       1.0523355    0.0038097632
      6038.68       1.0473722    0.0036482111
      6044.72       1.0424896    0.0035386944
      6050.76       1.0394615    0.0034302672
      6056.81       1.0366896    0.0033232661
      6062.87       1.0344682    0.0032178659
      6068.93       1.0323820    0.0031143242
      6075.00       1.0285320    0.0030129547
      6081.08       1.0280285    0.0029139350
      6087.16       1.0317799    0.0027795924
      6093.25       1.0339795    0.0026969743
      6099.34       1.0373471    0.0026095911
      6105.44       1.0419363    0.0025238039
      6111.54       1.0481885    0.0024405133
      6117.66       1.0531189    0.0023628437
      6123.78       1.0577927    0.0022909037
      6129.90       1.0610500    0.0021969901
      6136.03       1.0646550    0.0021369283
      6142.17       1.0684409    0.0020816556
      6148.31       1.0679636    0.0020308302
      6154.46       1.0659643    0.0019841931
      6160.61       1.0649508    0.0019494973
      6166.77       1.0621697    0.0019107227
      6172.94       1.0574158    0.0018574316
      6179.11       1.0544940    0.0018282423
      6185.29       1.0498521    0.0018037246
      6191.48       1.0436918    0.0017842276
      6197.67       1.0397380    0.0017702249
      6203.87       1.0369521    0.0017487619
      6210.07       1.0376212    0.0017485234
      6216.28       1.0400493    0.0017699835
      6222.50       1.0461194    0.0017836038
      6228.72       1.0541091    0.0018030152
      6234.95       1.0629148    0.0018218691
      6241.19       1.0717824    0.0018549810
      6247.42       1.0811561    0.0018942836
      6253.67       1.0905932    0.0019399041
      6259.93       1.1002597    0.0020160438
      6266.19       1.1054204    0.0020715689
      6272.46       1.1099042    0.0021371128
      6278.73       1.1135472    0.0022086821
      6285.01       1.1124778    0.0022861462
      6291.29       1.1078869    0.0023638623
      6297.58       1.1013945    0.0024901025
      6303.88       1.0870916    0.0025851649
      6310.19       1.0693110    0.0026856105
      6316.50       1.0515849    0.0027851375
      6322.81       1.0364360    0.0028956938
      6329.14       1.0257746    0.0030584686
      6335.47       1.0181271    0.0031789138
      6341.80       1.0132720    0.0032954730
      6348.14       1.0100256    0.0034229761
      6354.49       1.0071760    0.0035537202
      6360.85       1.0070847    0.0037421414
      6367.21       1.0099258    0.0038670491
      6373.57       1.0142941    0.0040032465
      6379.95       1.0192367    0.0041405984
      6386.33       1.0289091    0.0042790129
      6392.72       1.0378416    0.0044636926
      6399.11       1.0460463    0.0046032544
      6405.51       1.0537191    0.0047442366
      6411.92       1.0594164    0.0048694769
      6418.32       1.0648834    0.0050741187
      6424.74       1.0719389    0.0052136596
      6431.17       1.0804677    0.0053322070
      6437.60       1.0863108    0.0054664966
      6444.04       1.0932994    0.0056697315
      6450.48       1.1024751    0.0057815272
      6456.94       1.1099309    0.0059106412
      6463.39       1.1171271    0.0060365778
      6469.85       1.1230681    0.0062326602
      6476.33       1.1264815    0.0063264613
      6482.80       1.1292454    0.0064450558
      6489.28       1.1320356    0.0065614092
      6495.77       1.1355468    0.0067146454
      6502.27       1.1371705    0.0068217910
      6508.77       1.1400008    0.0068895957
      6515.28       1.1484277    0.0069883399
      6521.80       1.1627296     0.010043720
      6528.32       1.1804156     0.010344476
      6534.85       1.1966502     0.010459513
      6541.38       1.2267455     0.010423908
      6547.92       1.2720071     0.010699377
      6554.47       1.3427604     0.010787490
      6561.03       1.4299722     0.010713554
      6567.59       1.5162343     0.010958629
      6574.16       1.5741596     0.011015370
      6580.73       1.5969194     0.010899143
      6587.31       1.5867886     0.011108543
      6593.90       1.5293061     0.010972134
      6600.50       1.4600757     0.010970594
      6607.10       1.3857910     0.011140747
      6613.70       1.3322802     0.010960393
      6620.32       1.2914014     0.010926616
      6626.94       1.2617303     0.011058807
      6633.57       1.2438079    0.0076132875
      6640.20       1.2085106    0.0075730746
      6646.84       1.1859845    0.0075139393
      6653.49       1.1705326    0.0074586614
      6660.14       1.1609797    0.0074477710
      6666.80       1.1500052    0.0073254056
      6673.47       1.1412246    0.0072794309
      6680.14       1.1357721    0.0072033091
      6686.82       1.1321481    0.0071075361
      6693.51       1.1283850    0.0069623081
      6700.20       1.1228555    0.0069471955
      6706.90       1.1170987    0.0069071576
      6713.61       1.1112559    0.0068748645
      6720.32       1.1057608    0.0068538473
      6727.05       1.0993085    0.0067725529
      6733.77       1.0923239    0.0067884095
      6740.51       1.0870667    0.0066598125
      6747.25       1.0823723    0.0065705515
      6754.00       1.0793326    0.0064040107
      6760.75       1.0793773    0.0062483956
      6767.51       1.0795102    0.0060086378
      6774.28       1.0830902    0.0058142766
      6781.05       1.0883537    0.0055522345
      6787.84       1.0926049    0.0053592711
      6794.62       1.0959981    0.0051014514
      6801.42       1.1014778    0.0049451942
      6808.22       1.1025700    0.0047142920
      6815.03       1.1058595    0.0045617367
      6821.85       1.1049873    0.0043468756
      6828.67       1.1046208    0.0042101053
      6835.50       1.1056247    0.0040106244
      6842.33       1.1084557    0.0038711041
      6849.17       1.1114419    0.0036927574
      6856.02       1.1124034    0.0035605002
      6862.88       1.1117398    0.0033902466
      6869.74       1.1095104    0.0032632960
      6876.61       1.1100675    0.0030999032
      6883.49       1.1080769    0.0029782173
      6890.37       1.1048563    0.0028219700
      6897.27       1.1039932    0.0027066385
      6904.16       1.1031908    0.0025598698
      6911.07       1.1003536    0.0024180650
      6917.98       1.0974627    0.0023183722
      6924.89       1.0944459    0.0021906385
      6931.82       1.0933395    0.0021038434
      6938.75       1.0945654    0.0019948119
      6945.69       1.0944324    0.0019186242
      6952.64       1.0976838    0.0018237712
      6959.59       1.0996871    0.0017403283
      6966.55       1.1041284    0.0016858293
      6973.52       1.1095633    0.0016236960
      6980.49       1.1139520    0.0015841740
      6987.47       1.1180331    0.0015414617
      6994.46       1.1227933    0.0015172775
      7001.46       1.1267419    0.0014958928
      7008.46       1.1287050    0.0014791053
      7015.46       1.1317289    0.0014877721
      7022.48       1.1357491    0.0014878934
      7029.51       1.1405030    0.0015015888
      7036.53       1.1420966    0.0015105363
      7043.57       1.1405287    0.0015198179
      7050.62       1.1390690    0.0015352272
      7057.66       1.1369485    0.0015257300
      7064.72       1.1361369    0.0015267215
      7071.79       1.1339993    0.0015254594
      7078.86       1.1298770    0.0015233702
      7085.94       1.1251574    0.0015119463
      7093.03       1.1187161    0.0015203030
      7100.12       1.1129300    0.0015236859
      7107.22       1.1068516    0.0015192954
      7114.33       1.1009513    0.0015378028
      7121.44       1.0957889    0.0015389066
      7128.56       1.0899988    0.0015551142
      7135.69       1.0857980    0.0015694359
      7142.83       1.0822039    0.0015918099
      7149.97       1.0840986    0.0016218661
      7157.12       1.0869190    0.0016508003
      7164.28       1.0902517    0.0016973299
      7171.44       1.0928717    0.0017311710
      7178.62       1.0958900    0.0017897269
      7185.80       1.1030914    0.0018474865
      7192.98       1.1105956    0.0018886453
      7200.17       1.1202298    0.0019580630
      7207.38       1.1273581    0.0020273862
      7214.58       1.1334236    0.0020783047
      7221.80       1.1376059    0.0021623471
      7229.02       1.1411250    0.0022459560
      7236.25       1.1450099    0.0023058291
      7243.49       1.1495270    0.0023949342
      7250.73       1.1531454    0.0024612909
      7257.98       1.1550035    0.0025527036
      7265.24       1.1559848    0.0026472299
      7272.51       1.1618507    0.0027111481
      7279.78       1.1690164    0.0028169605
      7287.06       1.1766492    0.0029176753
      7294.35       1.1846504    0.0029848924
      7301.64       1.1894999    0.0030870570
      7308.94       1.1954737    0.0032004410
      7316.25       1.2014543    0.0033065352
      7323.57       1.2055015    0.0033747047
      7330.89       1.2075407    0.0034808201
      7338.22       1.2071377    0.0035997451
      7345.56       1.2028085    0.0036677462
      7352.91       1.1954317    0.0037748126
      7360.26       1.1858172    0.0038820227
      7367.62       1.1755510    0.0039490931
      7374.99       1.1637781    0.0040772534
      7382.37       1.1536307    0.0042079389
      7389.75       1.1427088    0.0043429972
      7397.14       1.1366441    0.0044005015
      7404.53       1.1359661    0.0045102896
      7411.94       1.1409371    0.0046752614
      7419.35       1.1500458    0.0048903374
      7426.77       1.1574130    0.0051237336
      7434.20       1.1653200    0.0054847583
      7441.63       1.1737772    0.0059163863
      7449.07       1.1880707    0.0063766185
      7456.52       1.2055715    0.0068081081
      7463.98       1.2220234    0.0073497573
      7471.45       1.2363046    0.0078332680
      7478.92       1.2494292    0.0081642491
      7486.40       1.2613538    0.0081814568
      7493.88       1.2720422    0.0080905926
      7501.38       1.2796532    0.0079075632
      7508.88       1.2795529    0.0075352491
      7516.39       1.2780166    0.0071591857
      7523.91       1.2734893    0.0068611602
      7531.43       1.2634503    0.0066383649
      7538.96       1.2530022    0.0064426014
      7546.50       1.2401493    0.0062921688
      7554.05       1.2258745    0.0062710737
      7561.60       1.2081030    0.0061986213
      7569.16       1.1888609    0.0061673502
      7576.73       1.1728567    0.0061421396
      7584.31       1.1618616    0.0061275567
      7591.89       1.1499553    0.0061226940
      7599.49       1.1364653    0.0060852769
      7607.09       1.1234220    0.0060879204
      7614.70       1.1143921    0.0060908318
      7622.31       1.1111260    0.0060912385
      7629.93       1.1117143    0.0060875822
      7637.56       1.1104609    0.0061197303
      7645.20       1.1070784    0.0060672703
      7652.85       1.1077628    0.0060487430
      7660.50       1.1113604    0.0060237950
      7668.16       1.1159479    0.0059928558
      7675.83       1.1232002    0.0059553050
      7683.50       1.1311353    0.0059109091
      7691.19       1.1367343    0.0058606260
      7698.88       1.1383852    0.0058050237
      7706.58       1.1253871    0.0057131948
      7714.29       1.1124620    0.0056463560
      7722.00       1.1066314    0.0055744730
      7729.73       1.1044092    0.0054975352
      7737.45       1.1085036    0.0054138882
      7745.19       1.1095051    0.0053216853
      7752.94       1.1139673    0.0052227428
      7760.69       1.1218902    0.0051193001
      7768.45       1.1299350    0.0050118522
      7776.22       1.1381235    0.0049007731
      7784.00       1.1411236    0.0047859616
      7791.78       1.1453334    0.0046505026
      7799.57       1.1546615    0.0045313896
      7807.37       1.1607322    0.0044106562
      7815.18       1.1674716    0.0042886178
      7822.99       1.1735822    0.0041650914
      7830.82       1.1733455    0.0040405118
      7838.65       1.1702937    0.0039154035
      7846.49       1.1623558    0.0037896045
      7854.34       1.1525227    0.0036633390
      7862.19       1.1456973    0.0035371101
      7870.05       1.1378586    0.0034117488
      7877.93       1.1291578    0.0032881093
      7885.80       1.1214043    0.0031667392
      7893.69       1.1127530    0.0030482595
      7901.58       1.1045745    0.0029344656
      7909.49       1.0986917    0.0028251704
      7917.40       1.0941829    0.0026915974
      7925.31       1.0914979    0.0025945103
      7933.24       1.0893233    0.0025031800
      7941.17       1.0887460    0.0024168877
      7949.11       1.0905886    0.0023383105
      7957.06       1.0944826    0.0022679312
      7965.02       1.1014794    0.0022048358
      7972.98       1.1063266    0.0021467931
      7980.96       1.1099820    0.0020951025
      7988.94       1.1127698    0.0020514048
      7996.93       1.1167447    0.0020113813
      8004.93       1.1211162    0.0019463794
      8012.93       1.1263547    0.0018999342
      8020.95       1.1302463    0.0018613476
      8028.97       1.1327855    0.0018301825
      8036.99       1.1342972    0.0018060675
      8045.03       1.1354630    0.0017891914
      8053.08       1.1351986    0.0017789139
      8061.13       1.1355032    0.0017758493
      8069.20       1.1359421    0.0017729772
      8077.26       1.1351662    0.0017881906
      8085.34       1.1316296    0.0018258887
      8093.43       1.1293742    0.0018564315
      8101.52       1.1290590    0.0018936084
      8109.62       1.1298276    0.0019371944
      8117.73       1.1284852    0.0019822193
      8125.85       1.1228773    0.0020388778
      8133.98       1.1178633    0.0021058506
      8142.11       1.1131299    0.0021873009
      8150.25       1.1120063    0.0022774051
      8158.41       1.1114474    0.0023593993
      8166.56       1.1135442    0.0024689924
      8174.73       1.1139550    0.0025637551
      8182.91       1.1140320    0.0026648286
      8191.09       1.1160851    0.0027720082
      8199.28       1.1203236    0.0028824914
      8207.48       1.1252951    0.0029981051
      8215.69       1.1316005    0.0031162198
      8223.91       1.1366717    0.0032387216
      8232.13       1.1391118    0.0034048631
      8240.36       1.1416767    0.0035343441
      8248.60       1.1498547    0.0036693090
      8256.85       1.1580343    0.0038064524
      8265.11       1.1610016    0.0039461543
      8273.37       1.1577227    0.0040795269
      8281.65       1.1506161    0.0042702927
      8289.93       1.1468354    0.0044151235
      8298.22       1.1411593    0.0045494566
      8306.52       1.1337673    0.0046944618
      8314.83       1.1254621    0.0048396204
      8323.14       1.1159835    0.0050353870
      8331.46       1.1039608    0.0051645584
      8339.80       1.0956500    0.0053059031
      8348.13       1.0890610    0.0054455403
      8356.48       1.0808841    0.0055647518
      8364.84       1.0748477    0.0057488290
      8373.21       1.0626509    0.0058770136
      8381.58       1.0494781    0.0060014078
      8389.96       1.0375234    0.0060977200
      8398.35       1.0279660    0.0062111248
      8406.75       1.0209471    0.0063734797
      8415.16       1.0148939    0.0064510068
      8423.57       1.0071244    0.0065475934
      8432.00       1.0037971    0.0066386389
      8440.43       1.0057018    0.0067467242
      8448.87       1.0066141    0.0068253792
      8457.32       1.0113993    0.0068994895
      8465.78       1.0133719    0.0069357638
      8474.25       1.0099143    0.0070465115
      8482.72       1.0043993    0.0071017062
      8491.20       1.0090788    0.0071162921
      8499.69       1.0203193    0.0072076076
      8508.19       1.0363354    0.0072070636
      8516.70       1.0538091    0.0072384079
      8525.22       1.0698006    0.0072651643
      8533.75       1.0805718    0.0072908163
      8542.28       1.0867200    0.0073061947
      8550.82       1.0910851    0.0072757682
      8559.37       1.0972061    0.0073261910
      8567.93       1.1057154    0.0073291019
      8576.50       1.1137984    0.0072854799
      8585.08       1.1114939    0.0073232248
      8593.66       1.1004800    0.0072717179
      8602.26       1.0970335    0.0072595934
      8610.86       1.0951703    0.0072863915
      8619.47       1.0989677    0.0072241278
      8628.09       1.1044388    0.0072028564
      8636.72       1.1084455    0.0071748651
      8645.36       1.1285743    0.0071476693
      8654.00       1.1635766    0.0070759594
      8662.66       1.1981407    0.0070821135
      8671.32       1.2297257    0.0070068623
      8679.99       1.2557166    0.0070097446
      8688.67       1.2749604    0.0069746404
      8697.36       1.2910285    0.0069007435
      8706.06       1.3022276    0.0069036132
      8714.76       1.3040113    0.0068330295
      8723.48       1.3025454    0.0068042570
      8732.21       1.2956084    0.0067799791
      8740.93       1.2793595    0.0067674609
      8749.68       1.2464232    0.0067591220
      8758.43       1.2182285    0.0067673241
      8767.19       1.2012429    0.0067952301
      8775.96       1.1894632    0.0068252492
      8784.73       1.1801248    0.0068293933
      8793.52       1.1685738    0.0069090169
      8802.31       1.1566754    0.0069072743
      8811.11       1.1455399    0.0069263737
      8819.92       1.1323983    0.0069124309
      8828.75       1.1184079    0.0068590888
      8837.57       1.1063582    0.0067915974
      8846.41       1.0930119    0.0066979607
      8855.26       1.0862278    0.0066194496
      8864.12       1.0799132    0.0065149174
      8872.98       1.0728186    0.0064937932
      8881.85       1.0684894    0.0064167293
      8890.73       1.0688205    0.0064183776
      8899.63       1.0725258    0.0063705475
      8908.52       1.0743851    0.0063606707
      8917.43       1.0750046    0.0063532099
      8926.35       1.0866331    0.0063373608
      8935.28       1.0929622    0.0063168154
      8944.22       1.0931201    0.0062807009
      8953.16       1.0931028    0.0062101948
      8962.11       1.0914129    0.0062047428
      8971.08       1.0969656    0.0061248811
      8980.05       1.0972688    0.0061141701
      8989.03       1.0950899    0.0060195563
      8998.02       1.0968563    0.0059416028
      9007.02       1.0973858    0.0059026070
      9016.02       1.0971632    0.0058054245
      9025.04       1.0929052    0.0057414688
      9034.07       1.0883303    0.0056982843
      9043.10       1.0836633    0.0056669366
      9052.14       1.0824378    0.0056318348
      9061.20       1.0826134    0.0056596248
      9070.26       1.0812900    0.0056685392
      9079.33       1.0772385    0.0057316202
      9088.41       1.0716262    0.0058532790
      9097.50       1.0656219    0.0059653557
      9106.60       1.0543201    0.0061902115
      9115.70       1.0473624    0.0064203599
      9124.82       1.0446536    0.0067635070
      9133.94       1.0416061    0.0071533273
      9143.08       1.0441742    0.0074763488
      9152.22       1.0403832    0.0078539194
      9161.37       1.0351640    0.0080638987
      9170.54       1.0399608    0.0082854267
      9179.71       1.0340871    0.0083157847
      9188.89       1.0316361    0.0081592828
      9198.08       1.0254871    0.0079860055
      9207.28       1.0227886    0.0078539323
      9216.48       1.0217976    0.0076423119
      9225.70       1.0308527    0.0075268781
      9234.92       1.0390866    0.0074707129
      9244.16       1.0463047    0.0074657813
      9253.40       1.0522562    0.0075202851
      9262.66       1.0515787    0.0075587712
      9271.92       1.0487018    0.0075419274
      9281.20       1.0565450    0.0076182493
      9290.48       1.0648029    0.0075877573
      9299.77       1.0672432    0.0074636669
      9309.07       1.0669692    0.0073732969
      9318.38       1.0607373    0.0073109564
      9327.69       1.0525779    0.0072515987
      9337.02       1.0469913    0.0071748280
      9346.36       1.0340292    0.0071069716
      9355.71       1.0203601    0.0070010118
      9365.07       1.0129639    0.0069185371
      9374.43       1.0043339    0.0068758123
      9383.80       1.0008604    0.0067748100
      9393.19      0.99977213    0.0066424296
      9402.58       1.0033958    0.0065243815
      9411.98      0.99818807    0.0063983390
      9421.40      0.99728637    0.0062697890
      9430.82      0.99489120    0.0061705623
      9440.25      0.99240079    0.0060310078
      9449.69      0.99550538    0.0058837987
      9459.14      0.99375796    0.0057381113
      9468.60      0.99062446    0.0055711888
      9478.07      0.99795039    0.0054144595
      9487.55       1.0026021    0.0052659633
      9497.04       1.0067185    0.0051370051
      9506.53       1.0075482    0.0050597366
      9516.04       1.0089658    0.0049466234
      9525.56       1.0085295    0.0048613653
      9535.08       1.0082852    0.0047853014
      9544.62       1.0088099    0.0047178220
      9554.16       1.0060448    0.0046518386
      9563.72       1.0033376    0.0045617947
      9573.29      0.99726417    0.0044793967
      9582.85      0.98998251    0.0043839319
      9592.44      0.97996827    0.0042828719
      9602.03      0.97361354    0.0041673113
      9611.63      0.96016099    0.0040299302
      9621.25      0.95161052    0.0039167171
      9630.87      0.94684830    0.0037781508
      9640.50      0.93506437    0.0036739959
      9650.14      0.92368221    0.0035507090
      9659.79      0.91493154    0.0034355576
      9669.45      0.91007739    0.0033591357
      9679.12      0.90138188    0.0032585806
      9688.80      0.89484099    0.0031661206
      9698.49      0.89048012    0.0031013889
      9708.19      0.88309034    0.0030252856
      9717.90      0.88213943    0.0029646760
      9727.62      0.88342637    0.0029179312
      9737.34      0.88286331    0.0028623848
      9747.08      0.88414044    0.0028151279
      9756.83      0.88559127    0.0027844918
      9766.59      0.88726135    0.0027630841
      9776.35      0.89231067    0.0027373597
      9786.13      0.89607882    0.0027187454
      9795.92      0.90188946    0.0027150961
      9805.71      0.90783860    0.0027215046
      9815.52      0.91442739    0.0027244350
      9825.34      0.91883711    0.0027346406
      9835.17      0.92548892    0.0027523377
      9845.00      0.93425127    0.0027957331
      9854.84      0.94161489    0.0028282699
      9864.70      0.94415017    0.0028684474
      9874.56      0.94876094    0.0029161220
      9884.44      0.95372693    0.0029909360
      9894.32      0.95573696    0.0030539660
      9904.22      0.95639916    0.0031244828
      9914.13      0.95432657    0.0032021431
      9924.04      0.95224382    0.0033111659
      9933.96      0.95096352    0.0034032847
      9943.90      0.94887217    0.0034989376
      9953.84      0.94217129    0.0036304475
      9963.79      0.93539159    0.0037393508
      9973.76      0.93276688    0.0038520383
      9983.74      0.92659246    0.0039673707
      9993.72      0.91686858    0.0041125157
