# starting wavelength =        4613.4233
# ending wavelength =        7966.8512
# O2 telluric scale =        0
# O2 telluric shift =        0
# H2O telluric scale =        0
# H2O telluric shift =        0
      4614.98       1.1635119      0.47466547
      4619.59       1.1250695      0.43459943
      4624.21       1.0978072      0.40421337
      4628.84       1.0633153      0.36821964
      4633.47       1.0689949      0.34524918
      4638.10       1.0707292      0.31895889
      4642.74       1.0512010      0.29499660
      4647.38       1.0452377      0.27849900
      4652.03       1.0486223      0.25954536
      4656.68       1.0517991      0.24717221
      4661.34       1.0625008      0.23284562
      4666.00       1.0432731      0.22171964
      4670.67       1.0430396      0.21320027
      4675.33       1.0284638      0.21643390
      4680.01       1.0174474      0.20854206
      4684.69       1.0385668      0.19896924
      4689.38       1.0353199      0.19154651
      4694.07       1.0660108      0.18615011
      4698.76       1.0707498      0.17938801
      4703.46       1.0626967      0.17482835
      4708.16       1.0104799      0.16942978
      4712.87      0.98132148      0.16494467
      4717.58       1.0107571      0.16144788
      4722.30       1.0349312      0.15748621
      4727.03       1.0122929      0.15452712
      4731.75       1.0375457      0.15135377
      4736.48       1.0495850      0.14849691
      4741.22       1.0101107      0.14618756
      4745.96       1.0299768      0.14365070
      4750.71       1.0133922      0.14177043
      4755.46       1.0074511      0.14049973
      4760.22      0.98153277      0.13882570
      4764.97      0.98135303      0.13663907
      4769.74       1.0041012      0.13418109
      4774.51      0.98380400      0.13265467
      4779.29       1.0112441      0.13089512
      4784.07      0.99030708      0.12932644
      4788.85       1.0213011      0.12758314
      4793.64       1.0199192      0.12622627
      4798.43       1.0160508      0.12498710
      4803.23       1.0107404      0.12391618
      4808.03       1.0212983      0.12287977
      4812.84       1.0530558      0.12227005
      4817.66       1.0500773      0.12173806
      4822.48       1.0071009      0.12095103
      4827.30      0.98940989      0.12047064
      4832.12      0.99709772      0.12003188
      4836.96      0.99323840      0.11970442
      4841.79       1.0016271      0.11909569
      4846.63      0.99643473      0.11878227
      4851.48      0.99802829      0.11847623
      4856.33       1.0363731      0.11795868
      4861.19       1.0499798      0.11795728
      4866.05       1.0832270      0.11782552
      4870.92       1.1064234      0.11736809
      4875.79       1.0707923      0.11673189
      4880.66       1.0936172      0.11632927
      4885.55       1.1080461      0.11583908
      4890.43       1.0706339      0.11585381
      4895.32       1.0906443      0.11566587
      4900.22       1.0972456      0.11510580
      4905.12       1.0815473      0.11490861
      4910.02       1.0791829      0.11473624
      4914.94       1.0258888      0.11424386
      4919.85       1.0065963      0.11435250
      4924.77      0.99997794      0.11422272
      4929.70      0.98852858      0.11379533
      4934.62      0.98488233      0.11291543
      4939.56      0.97464254      0.11189024
      4944.50      0.95067433      0.11161042
      4949.44      0.94683066      0.11129461
      4954.39      0.97035012      0.11062713
      4959.35      0.91991225      0.11022418
      4964.31      0.91843945      0.11000069
      4969.27      0.96436019      0.10929045
      4974.24      0.96247816      0.10881723
      4979.22      0.97628432      0.10817649
      4984.20      0.93879848      0.10780777
      4989.18      0.96465099      0.10739131
      4994.17      0.97983141      0.10668007
      4999.16      0.98980968      0.10643563
      5004.16      0.97618241      0.10564072
      5009.17      0.95889670      0.10525693
      5014.18      0.94082131      0.10445956
      5019.19      0.95010299      0.10394550
      5024.21      0.97817934      0.10347213
      5029.23      0.98589517      0.10286552
      5034.26       1.0067096      0.10251963
      5039.30      0.98299862      0.10178838
      5044.34      0.96288414      0.10124416
      5049.39      0.97579203      0.10056710
      5054.43      0.97895331      0.10009588
      5059.49      0.97592149     0.099756430
      5064.55       1.0029567     0.099068093
      5069.61       1.0100676     0.098554389
      5074.68      0.99526386     0.098041617
      5079.76      0.98761875     0.097885121
      5084.84      0.98140324     0.097955502
      5089.92      0.98629841     0.097530577
      5095.01      0.96555028     0.096559992
      5100.11      0.95515949     0.096016458
      5105.21      0.96497974     0.095337246
      5110.31      0.96039036     0.095195587
      5115.42      0.93783437     0.094532379
      5120.54      0.93500558     0.094259243
      5125.66      0.95747065     0.093835408
      5130.79      0.98681691     0.093855750
      5135.92       1.0130969     0.093928408
      5141.05      0.99940290     0.093764632
      5146.20      0.97832626     0.093241977
      5151.34      0.99155161     0.092811185
      5156.49       1.0066563     0.092254099
      5161.65       1.0034253     0.092019627
      5166.81      0.99912051     0.091672505
      5171.98       1.0164046     0.091571049
      5177.15       1.0138706     0.091287206
      5182.33       1.0359294     0.091195386
      5187.51       1.0301836     0.090890982
      5192.70       1.0176517     0.090796649
      5197.89       1.0310224     0.090726857
      5203.09       1.0409692     0.090511328
      5208.29       1.0387871     0.090402517
      5213.50       1.0511236     0.090349630
      5218.72       1.0678082     0.090347400
      5223.93       1.0724633     0.090133074
      5229.16       1.1121259     0.090150123
      5234.39       1.0884394     0.089782261
      5239.62       1.0641693     0.089426710
      5244.86       1.0658357     0.089387507
      5250.11       1.1139700     0.089181977
      5255.36       1.1104427     0.088968852
      5260.61       1.0813717     0.088562369
      5265.87       1.1098124     0.088542781
      5271.14       1.1338189     0.088203878
      5276.41       1.1595778     0.087794357
      5281.69       1.1621850     0.087736625
      5286.97       1.1709720     0.087374161
      5292.26       1.1470041     0.086946297
      5297.55       1.1481079     0.086688552
      5302.85       1.1377582     0.086138263
      5308.15       1.1440044     0.085920705
      5313.46       1.1486335     0.085476308
      5318.77       1.1642869     0.084883106
      5324.09       1.1875752     0.084574703
      5329.42       1.2116337     0.084179598
      5334.75       1.2713030     0.083574947
      5340.08       1.2911267     0.083328722
      5345.42       1.2961813     0.082747899
      5350.77       1.3230613     0.082424650
      5356.12       1.3264820     0.081973836
      5361.48       1.3416571     0.081447401
      5366.83       1.3654083     0.081131289
      5372.20       1.3993068     0.080649392
      5377.58       1.4299038     0.080091226
      5382.95       1.4119202     0.079855514
      5388.34       1.4247047     0.079325977
      5393.72       1.4213419     0.078838493
      5399.12       1.4811558     0.078394414
      5404.52       1.4930256     0.078083232
      5409.92       1.5107036     0.077690182
      5415.33       1.5121326     0.077217373
      5420.75       1.5095953     0.076908797
      5426.17       1.5207852     0.076525958
      5431.60       1.5181393     0.076114084
      5437.03       1.5223876     0.075907619
      5442.47       1.5210183     0.075456805
      5447.91       1.5177771     0.075093083
      5453.36       1.5203500     0.074604096
      5458.81       1.5186301     0.074345856
      5464.27       1.5190258     0.074060455
      5469.73       1.5092807     0.073695675
      5475.20       1.4855525     0.073386839
      5480.68       1.4757106     0.073189836
      5486.16       1.4404915     0.072926279
      5491.65       1.4217339     0.072681771
      5497.14       1.4104107     0.072561176
      5502.64       1.4166611     0.072093948
      5508.14       1.4114846     0.071639407
      5513.65       1.3950046     0.071401989
      5519.16       1.3921125     0.071039594
      5524.68       1.4205060     0.070857369
      5530.20       1.4269376     0.070395856
      5535.73       1.4334826     0.070170474
      5541.27       1.4379314     0.070260744
      5546.81       1.4485657     0.070406707
      5552.36       1.4105540     0.070051599
      5557.91       1.3830791     0.069862939
      5563.47       1.3790889     0.069398381
      5569.04       1.3614004     0.068994245
      5574.60       1.3536454     0.068666971
      5580.18       1.3354987     0.068293760
      5585.76       1.3221935     0.067794723
      5591.35       1.2962547     0.067315365
      5596.94       1.2898558     0.066999362
      5602.53       1.2701930     0.066724029
      5608.14       1.2689071     0.066734176
      5613.75       1.2280266     0.066401379
      5619.36       1.2141118     0.066220385
      5624.98       1.2234906     0.066062128
      5630.60       1.2032102     0.066103550
      5636.23       1.1969404     0.065972792
      5641.87       1.1874080     0.066110749
      5647.51       1.1752035     0.066079582
      5653.16       1.1550956     0.066151938
      5658.82       1.1459675     0.066270357
      5664.47       1.1253786     0.066283779
      5670.14       1.1281231     0.066460078
      5675.81       1.1307447     0.066548876
      5681.48       1.1477344     0.066774195
      5687.17       1.1340098     0.066830071
      5692.85       1.1213627     0.067053769
      5698.55       1.1349948     0.067268681
      5704.25       1.1314723     0.067361691
      5709.95       1.1067796     0.067525601
      5715.66       1.0870587     0.067540894
      5721.38       1.0661436     0.067716569
      5727.10       1.0595831     0.067800088
      5732.83       1.0596195     0.067789765
      5738.56       1.0775659     0.067989203
      5744.30       1.0823042     0.067979291
      5750.04       1.0815122     0.067943625
      5755.79       1.1185051     0.067942744
      5761.55       1.1255787     0.067801223
      5767.31       1.1277595     0.067805907
      5773.08       1.1317874     0.067685105
      5778.85       1.1080532     0.067461110
      5784.63       1.1186110     0.067340098
      5790.41       1.1201736     0.067212427
      5796.21       1.1035808     0.066934680
      5802.00       1.1152416     0.066697194
      5807.81       1.1178878     0.066442831
      5813.61       1.0926751     0.066034013
      5819.43       1.0830774     0.065744196
      5825.25       1.0896050     0.065436845
      5831.07       1.1006705     0.065102806
      5836.90       1.0922008     0.064836689
      5842.74       1.0976036     0.064848372
      5848.58       1.0870978     0.064601002
      5854.43       1.0625707     0.064203408
      5860.29       1.0405856     0.063667891
      5866.15       1.0398314     0.063207467
      5872.01       1.0407662     0.063093415
      5877.89       1.0298641     0.062767017
      5883.76       1.0195531     0.062125574
      5889.65       1.0064792     0.061696306
      5895.54      0.98620251     0.061310717
      5901.43      0.99459284     0.060991413
      5907.34      0.96379211     0.060613645
      5913.24      0.95599168     0.060318825
      5919.16      0.95257204     0.059982556
      5925.08      0.93089569     0.059799825
      5931.00      0.91737019     0.059398837
      5936.93      0.91378603     0.059204519
      5942.87      0.92703750     0.059071980
      5948.81      0.90677993     0.058991593
      5954.76      0.88859504     0.058826763
      5960.72      0.88808040     0.058770287
      5966.68      0.87614356     0.058845954
      5972.64      0.86555873     0.058841970
      5978.62      0.85753523     0.058891851
      5984.60      0.83724969     0.058987177
      5990.58      0.80271805     0.059369759
      5996.57      0.77085026     0.059729973
      6002.57      0.76594368     0.059743316
      6008.57      0.74103112     0.059724943
      6014.58      0.74168734     0.059894681
      6020.60      0.72830789     0.060051748
      6026.62      0.71632163     0.060249811
      6032.65      0.70136231     0.060346567
      6038.68      0.69314841     0.060620707
      6044.72      0.68034152     0.060672325
      6050.76      0.67149836     0.060776069
      6056.81      0.67347957     0.060982988
      6062.87      0.66326728     0.061024051
      6068.93      0.66982155     0.061256547
      6075.00      0.65402542     0.061468876
      6081.08      0.65453908     0.061623291
      6087.16      0.65619675     0.061696087
      6093.25      0.65707068     0.061765122
      6099.34      0.64709425     0.061770131
      6105.44      0.65811224     0.061835831
      6111.54      0.64826966     0.062165660
      6117.66      0.65923855     0.062194118
      6123.78      0.66813252     0.062299010
      6129.90      0.67400864     0.062636089
      6136.03      0.67277734     0.063066170
      6142.17      0.67086925     0.063405961
      6148.31      0.68556296     0.063889994
      6154.46      0.68113521     0.064090166
      6160.61      0.67586356     0.064296171
      6166.77      0.66578413     0.064302334
      6172.94      0.66272239     0.064201817
      6179.11      0.65123914     0.063822494
      6185.29      0.66078726     0.063309257
      6191.48      0.65580550     0.062603402
      6197.67      0.67112199     0.061990647
      6203.87      0.67578527     0.061634911
      6210.07      0.69661121     0.061369082
      6216.28      0.70891652     0.061467412
      6222.50      0.72547507     0.061820879
      6228.72      0.73578369     0.061975344
      6234.95      0.73671583     0.061771393
      6241.19      0.76780524     0.061668533
      6247.42      0.79234023     0.061666590
      6253.67      0.81347133     0.061945247
      6259.93      0.81898579     0.062124384
      6266.19      0.80837578     0.062310399
      6272.46      0.81910772     0.062512654
      6278.73      0.84516873     0.062782244
      6285.01      0.85153346     0.062906579
      6291.29      0.87810903     0.063348179
      6297.58      0.90605926     0.063701545
      6303.88      0.94838138     0.064157937
      6310.19      0.97537125     0.064803859
      6316.50      0.96450515     0.065375432
      6322.81      0.98515325     0.065904729
      6329.14      0.98599856     0.066281127
      6335.47      0.99960761     0.066675567
      6341.80       1.0092260     0.067264234
      6348.14       1.0366817     0.068026589
      6354.49       1.0623565     0.068857970
      6360.85       1.0758966     0.069082626
      6367.21       1.0766584     0.069488286
      6373.57       1.0880906     0.069818368
      6379.95       1.1115171     0.070534845
      6386.33       1.1236978     0.071294372
      6392.72       1.0910909     0.071882541
      6399.11       1.1097473     0.071814760
      6405.51       1.1021571     0.071991233
      6411.92       1.1245283     0.072417017
      6418.32       1.1270082     0.072521075
      6424.74       1.1397988     0.073277624
      6431.17       1.1549473     0.073140561
      6437.60       1.1116446     0.073173557
      6444.04       1.1260464     0.073447188
      6450.48       1.1508962     0.073965958
      6456.94       1.1131000     0.073569551
      6463.39       1.1304058     0.073009402
      6469.85       1.1362775     0.072822080
      6476.33       1.1266691     0.072986233
      6482.80       1.1184414     0.072820140
      6489.28       1.1189402     0.072656290
      6495.77       1.1497398     0.072548022
      6502.27       1.1476351     0.072552621
      6508.77       1.1522860     0.072696533
      6515.28       1.1635711     0.072704841
      6521.80       1.1660554     0.072538442
      6528.32       1.1575776     0.072477762
      6534.85       1.1537262     0.072443241
      6541.38       1.1446618     0.072260081
      6547.92       1.1541553     0.072119858
      6554.47       1.1718496     0.071959807
      6561.03       1.2079763     0.072143320
      6567.59       1.2381317     0.072077826
      6574.16       1.2239209     0.072019802
      6580.73       1.2388910     0.071651116
      6587.31       1.2550660     0.071539514
      6593.90       1.2685366     0.071403772
      6600.50       1.2529721     0.071455224
      6607.10       1.2480090     0.071586996
      6613.70       1.2223243     0.071980463
      6620.32       1.2121031     0.071804836
      6626.94       1.1847037     0.072424724
      6633.57       1.1467206     0.073148271
      6640.20       1.1336189     0.072821912
      6646.84       1.1284189     0.072068686
      6653.49       1.1171874     0.071278096
      6660.14       1.1348162     0.070612364
      6666.80       1.1080928     0.069857424
      6673.47       1.1322578     0.069141061
      6680.14       1.1465721     0.068801994
      6686.82       1.1388918     0.068559401
      6693.51       1.1453647     0.067781678
      6700.20       1.1288702     0.067254732
      6706.90       1.1314779     0.066648932
      6713.61       1.1490163     0.065833329
      6720.32       1.1808665     0.065151316
      6727.05       1.1867192     0.065192636
      6733.77       1.1839780     0.065210388
      6740.51       1.1788346     0.064694588
      6747.25       1.1902326     0.063575911
      6754.00       1.1817334     0.062788141
      6760.75       1.1785231     0.062057097
      6767.51       1.1671158     0.061694433
      6774.28       1.1531805     0.061649972
      6781.05       1.1550578     0.060933684
      6787.84       1.1604189     0.060411193
      6794.62       1.1593896     0.060177388
      6801.42       1.1526138     0.060219862
      6808.22       1.1453534     0.059750995
      6815.03       1.1471649     0.058951860
      6821.85       1.1315980     0.058761703
      6828.67       1.1314113     0.058658378
      6835.50       1.1018274     0.058503462
      6842.33       1.1188212     0.058186505
      6849.17       1.1024631     0.058300355
      6856.02       1.1170520     0.058554777
      6862.88       1.1151411     0.058775866
      6869.74       1.1045191     0.058778880
      6876.61       1.0935914     0.059006790
      6883.49       1.0634914     0.059211771
      6890.37       1.0400025     0.059622119
      6897.27       1.0172282     0.060156924
      6904.16      0.99700372     0.060813219
      6911.07      0.98709623     0.060942388
      6917.98      0.98377951     0.061101782
      6924.89      0.98594418     0.061356883
      6931.82      0.98162641     0.061900245
      6938.75      0.96271885     0.062852435
      6945.69      0.94370927     0.063502330
      6952.64      0.94795171     0.063920079
      6959.59      0.93231705     0.063957997
      6966.55      0.91813004     0.064436240
      6973.52      0.90955476     0.065078002
      6980.49      0.91942343     0.064995995
      6987.47      0.91324177     0.064871057
      6994.46      0.90641010     0.065405391
      7001.46      0.88157285     0.065752473
      7008.46      0.86505685     0.065891101
      7015.46      0.89557557     0.065456788
      7022.48      0.89299136     0.065407375
      7029.51      0.89542838     0.065545985
      7036.53      0.87888656     0.065458656
      7043.57      0.90217149     0.065428586
      7050.62      0.92589014     0.065070038
      7057.66      0.91966547     0.065088853
      7064.72      0.94074610     0.065062472
      7071.79      0.95212115     0.065399904
      7078.86      0.95055362     0.065437920
      7085.94      0.96968121     0.065370771
      7093.03       1.0038694     0.065021932
      7100.12      0.99183587     0.064608135
      7107.22      0.97759171     0.064095687
      7114.33      0.98166552     0.063765844
      7121.44      0.99712808     0.063656600
      7128.56      0.97999561     0.063582627
      7135.69      0.96603265     0.063213824
      7142.83      0.94945175     0.063337148
      7149.97      0.95665861     0.062742852
      7157.12      0.94905790     0.062438400
      7164.28      0.93253016     0.061935249
      7171.44      0.91886646     0.061999109
      7178.62      0.89891654     0.061536001
      7185.80      0.89115477     0.061479980
      7192.98      0.89285877     0.061499518
      7200.17      0.89244603     0.061614587
      7207.38      0.86884531     0.061238154
      7214.58      0.84982186     0.061279245
      7221.80      0.85385593     0.061347599
      7229.02      0.83376569     0.061990170
      7236.25      0.80325302     0.061851358
      7243.49      0.79699996     0.061680354
      7250.73      0.77903288     0.061778475
      7257.98      0.78617840     0.062023117
      7265.24      0.79262979     0.062407981
      7272.51      0.79318269     0.062523558
      7279.78      0.77447223     0.063340365
      7287.06      0.78548919     0.063370976
      7294.35      0.78154207     0.063452083
      7301.64      0.76990306     0.063696019
      7308.94      0.75981964     0.064099390
      7316.25      0.74624882     0.064734289
      7323.57      0.72768125     0.065480024
      7330.89      0.72565667     0.066040044
      7338.22      0.72957376     0.065951675
      7345.56      0.73980127     0.066289772
      7352.91      0.72993714     0.066970522
      7360.26      0.73432634     0.067089979
      7367.62      0.73509188     0.066794473
      7374.99      0.73180176     0.067084723
      7382.37      0.71637511     0.067748439
      7389.75      0.72987700     0.067848010
      7397.14      0.69181041     0.068108769
      7404.53      0.70179866     0.068183409
      7411.94      0.68160543     0.068369557
      7419.35      0.68497663     0.068793756
      7426.77      0.66303519     0.069003076
      7434.20      0.64684252     0.068845259
      7441.63      0.64682390     0.069107473
      7449.07      0.62486290     0.069219598
      7456.52      0.62769065     0.069256838
      7463.98      0.64239773     0.069345614
      7471.45      0.64855308     0.069216213
      7478.92      0.68456572     0.069153228
      7486.40      0.67710382     0.068939704
      7493.88      0.69551607     0.069025783
      7501.38      0.68731622     0.069347521
      7508.88      0.68141088     0.069681092
      7516.39      0.71509220     0.069931472
      7523.91      0.70171550     0.070386693
      7531.43      0.69578763     0.070382729
      7538.96      0.69029678     0.069980940
      7546.50      0.69575075     0.069044154
      7554.05      0.71354116     0.068340276
      7561.60      0.71234949     0.068363523
      7569.16      0.72477023     0.068140805
      7576.73      0.73733023     0.067474341
      7584.31      0.75681279     0.066756942
      7591.89      0.78405129     0.065897000
      7599.49      0.76462184     0.065570440
      7607.09      0.78294252     0.065302778
      7614.70      0.80914869     0.065481248
      7622.31      0.82000754     0.065317076
      7629.93      0.83498776     0.065182039
      7637.56      0.83336631     0.065253149
      7645.20      0.85559142     0.065769299
      7652.85      0.83714565     0.065855343
      7660.50      0.85940558     0.065212658
      7668.16      0.87097034     0.065371323
      7675.83      0.88124338     0.065548292
      7683.50      0.86650166     0.065931225
      7691.19      0.87765503     0.066596696
      7698.88      0.89172684     0.067438585
      7706.58      0.86811777     0.068685251
      7714.29      0.83910123     0.069357923
      7722.00      0.83167966     0.069969081
      7729.73      0.83539962     0.071196000
      7737.45      0.83458923     0.072148339
      7745.19      0.79956642     0.073851553
      7752.94      0.78797935     0.074995934
      7760.69      0.77979430     0.077408338
      7768.45      0.78457672     0.078857744
      7776.22      0.78282997     0.081464726
      7784.00      0.78111657     0.083694121
      7791.78      0.76863218     0.086291417
      7799.57      0.76353069     0.089150153
      7807.37      0.77502813     0.092907686
      7815.18      0.77781474     0.096884900
      7822.99      0.78018723      0.10127411
      7830.82      0.78873835      0.10536095
      7838.65      0.80352913      0.11092111
      7846.49      0.81155390      0.11744780
      7854.34      0.83012856      0.12499559
      7862.19      0.82870179      0.13170957
      7870.05      0.82632228      0.13760416
      7877.93      0.82467030      0.14863890
      7885.80      0.81967046      0.15926676
      7893.69      0.81873412      0.17360104
      7901.58      0.82230781      0.18411151
      7909.49      0.81480851      0.19741717
      7917.40      0.81862243      0.21169968
      7925.31      0.78586301      0.23207546
      7933.24      0.76070625      0.25054958
      7941.17      0.73988889      0.27895623
      7949.11      0.73399822      0.30029304
      7957.06      0.78624436      0.32588984
      7965.02      0.77500972      0.35790341
