# starting wavelength =        4168.6400
# ending wavelength =        8136.3000
# O2 telluric scale =        0
# O2 telluric shift =        0
# H2O telluric scale =        0
# H2O telluric shift =        0
      4171.82      0.18840637     0.011748172
      4175.99      0.19029967    0.0099699561
      4180.17      0.19178968    0.0089895350
      4184.35      0.19289330    0.0078341050
      4188.54      0.19450831    0.0067005236
      4192.72      0.19571631    0.0060560969
      4196.92      0.19465247    0.0055580578
      4201.11      0.19412322    0.0052737293
      4205.31      0.19355036    0.0049481999
      4209.52      0.19435641    0.0046349839
      4213.73      0.19611810    0.0044453567
      4217.94      0.19714091    0.0043379666
      4222.16      0.19871707    0.0042012433
      4226.38      0.20091133    0.0040919676
      4230.61      0.20310853    0.0039974450
      4234.84      0.20434571    0.0039475314
      4239.08      0.20613107    0.0038706594
      4243.32      0.20684532    0.0038013462
      4247.56      0.20728056    0.0037980677
      4251.81      0.20775221    0.0037962490
      4256.06      0.20879134    0.0038260066
      4260.32      0.20868651    0.0038236331
      4264.58      0.20738861    0.0038529871
      4268.84      0.20673181    0.0038515199
      4273.11      0.20709886    0.0038506035
      4277.38      0.20500414    0.0038803740
      4281.66      0.20343677    0.0038458401
      4285.94      0.20091462    0.0038774898
      4290.23      0.20334530    0.0038752846
      4294.52      0.20690067    0.0039061879
      4298.81      0.20768655    0.0039050614
      4303.11      0.20633226    0.0039381495
      4307.42      0.20384822    0.0039362458
      4311.72      0.20231572    0.0039348624
      4316.04      0.20246188    0.0039682164
      4320.35      0.20236196    0.0039321367
      4324.67      0.20128531    0.0039646109
      4329.00      0.20180134    0.0039634982
      4333.33      0.20210047    0.0039629082
      4337.66      0.20040496    0.0039976193
      4342.00      0.19983438    0.0039962411
      4346.34      0.20117785    0.0040312006
      4350.69      0.20365792    0.0040307798
      4355.04      0.20550149    0.0040675796
      4359.39      0.20745676    0.0040663465
      4363.75      0.20995800    0.0040656848
      4368.12      0.20997333    0.0041032046
      4372.48      0.20841435    0.0040635137
      4376.86      0.20717213    0.0041000220
      4381.23      0.20351081    0.0040994562
      4385.61      0.19981309    0.0040994557
      4390.00      0.20023677    0.0041391699
      4394.39      0.20019499    0.0041381000
      4398.79      0.20033647    0.0041773361
      4403.18      0.20027609    0.0041773727
      4407.59      0.19940063    0.0041778268
      4412.00      0.20029059    0.0042192325
      4416.41      0.20171964    0.0042187514
      4420.82      0.20433421    0.0042607658
      4425.25      0.20887262    0.0042612930
      4429.67      0.21235591    0.0042623204
      4434.10      0.21654399    0.0043058134
      4438.54      0.22381486    0.0043056602
      4442.97      0.23269544    0.0043507304
      4447.42      0.24279332    0.0043517689
      4451.86      0.25213252    0.0043533590
      4456.32      0.26259060    0.0043992741
      4460.77      0.27390204    0.0043995201
      4465.24      0.28595022    0.0043501294
      4469.70      0.29843842    0.0043997891
      4474.17      0.31137519    0.0043991697
      4478.65      0.32339302    0.0044465910
      4483.12      0.33347036    0.0044471747
      4487.61      0.34356494    0.0044482704
      4492.09      0.35436762    0.0045016808
      4496.59      0.36591117    0.0045012800
      4501.08      0.37717069    0.0045015249
      4505.58      0.38924766    0.0045529752
      4510.09      0.40284087    0.0045542095
      4514.60      0.41456558    0.0046126851
      4519.12      0.42671506    0.0046124177
      4523.63      0.43944340    0.0046125829
      4528.16      0.45313496    0.0046675912
      4532.69      0.46658490    0.0046688363
      4537.22      0.47943043    0.0046706921
      4541.76      0.49077547    0.0047332417
      4546.30      0.50236113    0.0047333031
      4550.85      0.51536960    0.0048014288
      4555.40      0.52771366    0.0048617026
      4559.95      0.54028033    0.0048633345
      4564.51      0.55176687    0.0049289576
      4569.08      0.55974764    0.0048656973
      4573.65      0.56641957    0.0048660245
      4578.22      0.57046891    0.0048667744
      4582.80      0.57310788    0.0048681974
      4587.38      0.57634213    0.0048702842
      4591.97      0.57918727    0.0048725283
      4596.56      0.58083355    0.0048736925
      4601.16      0.58081950    0.0048740962
      4605.76      0.57839903    0.0048751596
      4610.37      0.57455935    0.0048765613
      4614.98      0.57210982    0.0048782894
      4619.59      0.57032741    0.0048806144
      4624.21      0.56822281    0.0048147441
      4628.84      0.56593153    0.0048177349
      4633.47      0.55971018    0.0048209592
      4638.10      0.55612412    0.0048868396
      4642.74      0.55430945    0.0048886360
      4647.38      0.55024729    0.0048906913
      4652.03      0.54298383    0.0048929908
      4656.68      0.53476735    0.0048268760
      4661.34      0.52598323    0.0048300296
      4666.00      0.51558658    0.0048333585
      4670.67      0.50573629    0.0048368495
      4675.33      0.49633440    0.0048407678
      4680.01      0.48709551    0.0049053563
      4684.69      0.47610804    0.0049077415
      4689.38      0.46667574    0.0048411891
      4694.07      0.45737314    0.0048440498
      4698.76      0.44900799    0.0048473378
      4703.46      0.44034990    0.0048507394
      4708.16      0.43259610    0.0048542430
      4712.87      0.42649314    0.0048581014
      4717.58      0.41938952    0.0048623009
      4722.30      0.41047543    0.0048665160
      4727.03      0.40099120    0.0048021487
      4731.75      0.39348274    0.0048050546
      4736.48      0.38437398    0.0048670860
      4741.22      0.37274899    0.0048703958
      4745.96      0.36297890    0.0048737560
      4750.71      0.35628589    0.0048773997
      4755.46      0.35027642    0.0048813612
      4760.22      0.34511608    0.0048852919
      4764.97      0.34335660    0.0048893871
      4769.74      0.34602948    0.0048937473
      4774.51      0.35029972    0.0048314684
      4779.29      0.35540756    0.0048345114
      4784.07      0.36121653    0.0048376908
      4788.85      0.36815865    0.0048411042
      4793.64      0.37698022    0.0048446414
      4798.43      0.38513034    0.0048482694
      4803.23      0.39069376    0.0048520228
      4808.03      0.39371541    0.0048559625
      4812.84      0.39418215    0.0048600054
      4817.66      0.39273028    0.0049234473
      4822.48      0.38895205    0.0049275879
      4827.30      0.38577420    0.0048694669
      4832.12      0.37957848    0.0048728515
      4836.96      0.37353481    0.0048763098
      4841.79      0.36888789    0.0048798311
      4846.63      0.36528473    0.0048835713
      4851.48      0.36329447    0.0048874021
      4856.33      0.36546612    0.0048910969
      4861.19      0.37017134    0.0048949661
      4866.05      0.37642336    0.0048990172
      4870.92      0.38676269    0.0049030713
      4875.79      0.39904665    0.0049071142
      4880.66      0.41481126    0.0049113207
      4885.55      0.43492451    0.0049155768
      4890.43      0.45613041    0.0049198503
      4895.32      0.47845666    0.0049241555
      4900.22      0.50258746    0.0049286008
      4905.12      0.52817163    0.0049330636
      4910.02      0.54981216    0.0048711980
      4914.94      0.57202734    0.0048755719
      4919.85      0.59223028    0.0048800920
      4924.77      0.60511344    0.0048846234
      4929.70      0.61268632    0.0048891401
      4934.62      0.61751836    0.0048936327
      4939.56      0.61752006    0.0048982553
      4944.50      0.61104150    0.0049028353
      4949.44      0.60064270    0.0049075227
      4954.39      0.58602585    0.0049121826
      4959.35      0.56789971    0.0049169775
      4964.31      0.54758397    0.0049217481
      4969.27      0.52619207    0.0049264599
      4974.24      0.50754679    0.0049312471
      4979.22      0.48996321    0.0049360868
      4984.20      0.47297877    0.0049409142
      4989.18      0.45766876    0.0049457105
      4994.17      0.44480912    0.0049506302
      4999.16      0.43487358    0.0049555706
      5004.16      0.42534234    0.0049604938
      5009.17      0.42015989    0.0049653755
      5014.18      0.41791940    0.0049703980
      5019.19      0.41595701    0.0049185022
      5024.21      0.41789829    0.0049235601
      5029.23      0.42327751    0.0049286274
      5034.26      0.42951383    0.0049336819
      5039.30      0.43664376    0.0049388455
      5044.34      0.44500791    0.0049439431
      5049.39      0.45421780    0.0049491492
      5054.43      0.46420710    0.0049542980
      5059.49      0.47406130    0.0049596992
      5064.55      0.48350817    0.0049650378
      5069.61      0.49327361    0.0049703908
      5074.68      0.50205704    0.0049758681
      5079.76      0.50974363    0.0049814677
      5084.84      0.51446829    0.0049870552
      5089.92      0.51816168    0.0049926842
      5095.01      0.52103265    0.0049984560
      5100.11      0.52266871    0.0050043630
      5105.21      0.52635130    0.0049495486
      5110.31      0.52815215    0.0049544109
      5115.42      0.52964951    0.0049597310
      5120.54      0.53302646    0.0049648532
      5125.66      0.53636124    0.0050346890
      5130.79      0.53922073    0.0050400777
      5135.92      0.54240802    0.0050456217
      5141.05      0.54745265    0.0050512340
      5146.20      0.55372711    0.0050568436
      5151.34      0.56098374    0.0050627714
      5156.49      0.56757180    0.0050687029
      5161.65      0.57435234    0.0050748132
      5166.81      0.58371111    0.0050221238
      5171.98      0.59439081    0.0050271418
      5177.15      0.60578447    0.0050321993
      5182.33      0.61666309    0.0050372781
      5187.51      0.63031444    0.0050426383
      5192.70      0.64540566    0.0050481324
      5197.89      0.66069832    0.0050537217
      5203.09      0.67707661    0.0050593515
      5208.29      0.69351805    0.0050653091
      5213.50      0.71166827    0.0050809267
      5218.72      0.73032302    0.0050854923
      5223.93      0.74731482    0.0050903989
      5229.16      0.76228999    0.0050954932
      5234.39      0.77756549    0.0051007032
      5239.62      0.79493850    0.0051060136
      5244.86      0.81217686    0.0051117000
      5250.11      0.82813150    0.0051174311
      5255.36      0.84281161    0.0050677192
      5260.61      0.85825532    0.0050738957
      5265.87      0.87394590    0.0050804494
      5271.14      0.88982397    0.0051490203
      5276.41      0.90639474    0.0051540069
      5281.69      0.92199464    0.0051594325
      5286.97      0.93932145    0.0051088943
      5292.26      0.95570974    0.0051146282
      5297.55      0.96944973    0.0051206683
      5302.85      0.98134980    0.0051271514
      5308.15      0.99247538    0.0051337945
      5313.46       1.0003480    0.0051406428
      5318.77       1.0039717    0.0052076630
      5324.09       1.0015506    0.0051565482
      5329.42      0.99867828    0.0051622217
      5334.75      0.99500395    0.0051683775
      5340.08      0.99096492    0.0051750340
      5345.42      0.98539273    0.0051819074
      5350.77      0.97910284    0.0051890379
      5356.12      0.97400822    0.0051352096
      5361.48      0.97157422    0.0052047464
      5366.83      0.97432429    0.0052106400
      5372.20      0.97932450    0.0052170751
      5377.58      0.98688767    0.0052240775
      5382.95      0.99853295    0.0051720950
      5388.34       1.0128445    0.0051771808
      5393.72       1.0303680    0.0051828096
      5399.12       1.0503117    0.0052534236
      5404.52       1.0701567    0.0052598427
      5409.92       1.0907633    0.0052092472
      5415.33       1.1087896    0.0052142188
      5420.75       1.1256993    0.0052194293
      5426.17       1.1420268    0.0052251636
      5431.60       1.1575068    0.0052965838
      5437.03       1.1682705    0.0052464702
      5442.47       1.1767429    0.0052509369
      5447.91       1.1813267    0.0052560713
      5453.36       1.1822523    0.0052618680
      5458.81       1.1813859    0.0052680081
      5464.27       1.1776554    0.0052833051
      5469.73       1.1751613    0.0052878898
      5475.20       1.1710086    0.0052928059
      5480.68       1.1664060    0.0052983669
      5486.16       1.1613554    0.0052497093
      5491.65       1.1566849    0.0053199034
      5497.14       1.1548923    0.0053242395
      5502.64       1.1551901    0.0053293855
      5508.14       1.1563046    0.0052800327
      5513.65       1.1596657    0.0052863667
      5519.16       1.1664358    0.0053557990
      5524.68       1.1734359    0.0053605874
      5530.20       1.1797836    0.0053104023
      5535.73       1.1859303    0.0053164883
      5541.27       1.1928661    0.0053234456
      5546.81       1.2003001    0.0053918666
      5552.36       1.2046154    0.0053408234
      5557.91       1.2079275    0.0053467770
      5563.47       1.2115923    0.0053536449
      5569.04       1.2152786    0.0053612406
      5574.60       1.2203116    0.0053713649
      5580.18       1.2237273    0.0053772812
      5585.76       1.2246008    0.0053839753
      5591.35       1.2233593    0.0053914643
      5596.94       1.2226215    0.0054017589
      5602.53       1.2187179    0.0054077664
      5608.14       1.2115441    0.0054143813
      5613.75       1.2009223    0.0053633601
      5619.36       1.1892195    0.0054321938
      5624.98       1.1730154    0.0054379901
      5630.60       1.1525143    0.0054448956
      5636.23       1.1278217    0.0053930221
      5641.87       1.1000955    0.0053981898
      5647.51       1.0692406    0.0054683950
      5653.16       1.0376087    0.0054180857
      5658.82       1.0059577    0.0054226029
      5664.47      0.97170048    0.0054923724
      5670.14      0.94072608    0.0054990436
      5675.81      0.91111216    0.0054471584
      5681.48      0.88733457    0.0054519845
      5687.17      0.86479583    0.0055226675
      5692.85      0.84508399    0.0054717879
      5698.55      0.83170708    0.0054759906
      5704.25      0.82337758    0.0054814131
      5709.95      0.81982816    0.0054963099
      5715.66      0.82073624    0.0055001463
      5721.38      0.82704401    0.0055050849
      5727.10      0.83787688    0.0054566274
      5732.83      0.85121162    0.0055242339
      5738.56      0.86705766    0.0055287683
      5744.30      0.88906464    0.0054797264
      5750.04      0.91389201    0.0055482568
      5755.79      0.94144729    0.0055523987
      5761.55      0.97376031    0.0055027821
      5767.31       1.0061177    0.0055718641
      5773.08       1.0381256    0.0055759568
      5778.85       1.0734446    0.0055265158
      5784.63       1.1052440    0.0055893698
      5790.41       1.1369993    0.0058106062
      5796.21       1.1645911    0.0060182480
      5802.00       1.1953133    0.0056541141
      5807.81       1.2210252    0.0055962810
      5813.61       1.2436772    0.0057106184
      5819.43       1.2647419    0.0058659393
      5825.25       1.2832314    0.0061268001
      5831.07       1.2995028    0.0064486780
      5836.90       1.3111951    0.0068901421
      5842.74       1.3153961    0.0077150795
      5848.58       1.3220420    0.0087550013
      5854.43       1.3364896    0.0079452328
      5860.29       1.3467775    0.0070374477
      5866.15       1.3539923    0.0072542068
      5872.01       1.3613103    0.0074189963
      5877.89       1.3686344    0.0077168428
      5883.76       1.3748145    0.0078529737
      5889.65       1.3812261    0.0084152318
      5895.54       1.3858471    0.0094057096
      5901.43       1.3846317    0.0090523243
      5907.34       1.3826517    0.0079245409
      5913.24       1.3777800    0.0071345341
      5919.16       1.3690401    0.0066466170
      5925.08       1.3603653    0.0063187185
      5931.00       1.3498703    0.0061316150
      5936.93       1.3401430    0.0060173466
      5942.87       1.3287398    0.0068843160
      5948.81       1.3178985    0.0065067689
      5954.76       1.3059121    0.0062012280
      5960.72       1.2927709    0.0059244451
      5966.68       1.2814211    0.0057756433
      5972.64       1.2706101    0.0056599885
      5978.62       1.2606365    0.0057246036
      5984.60       1.2516793    0.0057278847
      5990.58       1.2450845    0.0057395417
      5996.57       1.2380107    0.0057422425
      6002.57       1.2314673    0.0056922233
      6008.57       1.2246370    0.0057576637
      6014.58       1.2163031    0.0057066154
      6020.60       1.2086231    0.0057733482
      6026.62       1.1958097    0.0057212907
      6032.65       1.1836504    0.0057270986
      6038.68       1.1716316    0.0057919917
      6044.72       1.1572681    0.0057414802
      6050.76       1.1461712    0.0058074637
      6056.81       1.1336188    0.0057558275
      6062.87       1.1226166    0.0057625262
      6068.93       1.1113617    0.0057702439
      6075.00       1.1067862    0.0057762924
      6081.08       1.1067706    0.0057847185
      6087.16       1.1121521    0.0057900968
      6093.25       1.1258719    0.0057992376
      6099.34       1.1396506    0.0058040419
      6105.44       1.1580856    0.0057513696
      6111.54       1.1768099    0.0058179162
      6117.66       1.1941337    0.0057655934
      6123.78       1.2107317    0.0058316830
      6129.90       1.2220081    0.0057796836
      6136.03       1.2323144    0.0058454424
      6142.17       1.2337193    0.0057934539
      6148.31       1.2329098    0.0058590246
      6154.46       1.2268086    0.0058072745
      6160.61       1.2185175    0.0058102039
      6166.77       1.2057850    0.0058242045
      6172.94       1.1956715    0.0058285114
      6179.11       1.1853593    0.0058392458
      6185.29       1.1759445    0.0058417125
      6191.48       1.1659093    0.0058578212
      6197.67       1.1559958    0.0058655330
      6203.87       1.1487764    0.0058895091
      6210.07       1.1423974    0.0059016769
      6216.28       1.1369105    0.0059297080
      6222.50       1.1298285    0.0059426517
      6228.72       1.1200609    0.0059680011
      6234.95       1.1066993    0.0059769144
      6241.19       1.0908608    0.0059933499
      6247.42       1.0778363    0.0059951104
      6253.67       1.0612515    0.0059995822
      6259.93       1.0451021    0.0059374583
      6266.19       1.0301298    0.0059906024
      6272.46       1.0194445    0.0059263107
      6278.73       1.0102578    0.0059804379
      6285.01       1.0088379    0.0059212771
      6291.29       1.0126842    0.0059811784
      6297.58       1.0185021    0.0059213942
      6303.88       1.0246223    0.0059786679
      6310.19       1.0336166    0.0059219671
      6316.50       1.0456042    0.0059250220
      6322.81       1.0600040    0.0059257881
      6329.14       1.0771283    0.0059292494
      6335.47       1.0940143    0.0059315254
      6341.80       1.1124669    0.0059352543
      6348.14       1.1299018    0.0059388693
      6354.49       1.1477503    0.0059434691
      6360.85       1.1690503    0.0058901507
      6367.21       1.1910336    0.0059532912
      6373.57       1.2107747    0.0058995167
      6379.95       1.2295313    0.0059639831
      6386.33       1.2468406    0.0059718710
      6392.72       1.2605364    0.0059224518
      6399.11       1.2757110    0.0059887152
      6405.51       1.2899672    0.0059410056
      6411.92       1.3027725    0.0060089703
      6418.32       1.3129720    0.0059576004
      6424.74       1.3246533    0.0059701222
      6431.17       1.3369398    0.0059728919
      6437.60       1.3490610    0.0059822825
      6444.04       1.3592929    0.0060460662
      6450.48       1.3703264    0.0059891637
      6456.94       1.3795767    0.0059945995
      6463.39       1.3889850    0.0059925665
      6469.85       1.3989400    0.0059967971
      6476.33       1.4060432    0.0059426111
      6482.80       1.4135935    0.0060016562
      6489.28       1.4140849    0.0060083979
      6495.77       1.4132356    0.0059526677
      6502.27       1.4181562    0.0060109724
      6508.77       1.4220060    0.0059556110
      6515.28       1.4255161    0.0060116836
      6521.80       1.4356264    0.0060161160
      6528.32       1.4514760    0.0059602567
      6534.85       1.4652046    0.0060166114
      6541.38       1.4823865    0.0059617628
      6547.92       1.5037474    0.0059627372
      6554.47       1.5199701    0.0060209145
      6561.03       1.5295091    0.0059673165
      6567.59       1.5367162    0.0059705158
      6574.16       1.5378950    0.0059737038
      6580.73       1.5339434    0.0059761870
      6587.31       1.5238750    0.0059799704
      6593.90       1.5089666    0.0059828123
      6600.50       1.4870616    0.0059851560
      6607.10       1.4594413    0.0059888036
      6613.70       1.4347553    0.0059354343
      6620.32       1.4114157    0.0059938385
      6626.94       1.3935472    0.0059973913
      6633.57       1.3763328    0.0059436032
      6640.20       1.3606836    0.0060018952
      6646.84       1.3546540    0.0059466633
      6653.49       1.3536808    0.0059509382
      6660.14       1.3530176    0.0060092508
      6666.80       1.3540669    0.0059536195
      6673.47       1.3590939    0.0059574610
      6680.14       1.3620535    0.0059621506
      6686.82       1.3631832    0.0059599469
      6693.51       1.3632721    0.0059631992
      6700.20       1.3636753    0.0059673053
      6706.90       1.3616735    0.0059655751
      6713.61       1.3573960    0.0059680893
      6720.32       1.3516922    0.0059715294
      6727.05       1.3470107    0.0059180761
      6733.77       1.3408145    0.0059723512
      6740.51       1.3353417    0.0059771389
      6747.25       1.3315147    0.0059949537
      6754.00       1.3285730    0.0059655961
      6760.75       1.3213485    0.0060179543
      6767.51       1.3122490    0.0060147816
      6774.28       1.3012133    0.0059789167
      6781.05       1.2902903    0.0060243805
      6787.84       1.2772055    0.0061355182
      6794.62       1.2626425    0.0061522309
      6801.42       1.2486955    0.0062525200
      6808.22       1.2320510    0.0063597322
      6815.03       1.2140965    0.0065116344
      6821.85       1.1983973    0.0065142360
      6828.67       1.1871776    0.0065687279
      6835.50       1.1792261    0.0065839193
      6842.33       1.1732160    0.0064955737
      6849.17       1.1670714    0.0065199490
      6856.02       1.1648231    0.0064425990
      6862.88       1.1685190    0.0063564372
      6869.74       1.1719645    0.0062296859
      6876.61       1.1808289    0.0061765285
      6883.49       1.1900936    0.0062070494
      6890.37       1.1982872    0.0061572956
      6897.27       1.2071497    0.0060634847
      6904.16       1.2170893    0.0060344679
      6911.07       1.2278303    0.0060135664
      6917.98       1.2359560    0.0060462788
      6924.89       1.2439754    0.0059783890
      6931.82       1.2484260    0.0059665826
      6938.75       1.2501217    0.0059602459
      6945.69       1.2515771    0.0059575670
      6952.64       1.2533644    0.0059521994
      6959.59       1.2524550    0.0059488189
      6966.55       1.2472874    0.0059434214
      6973.52       1.2381320    0.0059358272
      6980.49       1.2283074    0.0059261170
      6987.47       1.2187938    0.0058640690
      6994.46       1.2116452    0.0058550168
      7001.46       1.2023758    0.0058989354
      7008.46       1.1975269    0.0058911723
      7015.46       1.1885573    0.0058835532
      7022.48       1.1795917    0.0058248207
      7029.51       1.1735539    0.0058180463
      7036.53       1.1708974    0.0058132421
      7043.57       1.1684872    0.0058126985
      7050.62       1.1652696    0.0058626453
      7057.66       1.1600520    0.0058165376
      7064.72       1.1533074    0.0058198493
      7071.79       1.1475336    0.0058256766
      7078.86       1.1424796    0.0058391092
      7085.94       1.1392242    0.0058635180
      7093.03       1.1329846    0.0058476908
      7100.12       1.1275522    0.0059035413
      7107.22       1.1234366    0.0060052477
      7114.33       1.1195200    0.0060718460
      7121.44       1.1200959    0.0061255606
      7128.56       1.1283056    0.0061613518
      7135.69       1.1328893    0.0061184451
      7142.83       1.1368207    0.0061259343
      7149.97       1.1368075    0.0061216922
      7157.12       1.1417085    0.0061057015
      7164.28       1.1518317    0.0060846545
      7171.44       1.1605236    0.0060660414
      7178.62       1.1655164    0.0061084767
      7185.80       1.1678300    0.0060508006
      7192.98       1.1706537    0.0060511493
      7200.17       1.1716584    0.0060503351
      7207.38       1.1731156    0.0060434556
      7214.58       1.1726729    0.0060268349
      7221.80       1.1743882    0.0059982091
      7229.02       1.1740934    0.0059627778
      7236.25       1.1704338    0.0059295072
      7243.49       1.1687758    0.0058515119
      7250.73       1.1634610    0.0058175096
      7257.98       1.1632003    0.0057786161
      7265.24       1.1652968    0.0057373523
      7272.51       1.1630249    0.0056977038
      7279.78       1.1642282    0.0056615950
      7287.06       1.1642136    0.0056302587
      7294.35       1.1623958    0.0056015255
      7301.64       1.1552480    0.0055763107
      7308.94       1.1497492    0.0055557577
      7316.25       1.1423971    0.0055866125
      7323.57       1.1364154    0.0055252597
      7330.89       1.1352350    0.0055068370
      7338.22       1.1329213    0.0054875508
      7345.56       1.1298931    0.0054693663
      7352.91       1.1262705    0.0054524090
      7360.26       1.1271575    0.0054366618
      7367.62       1.1294911    0.0054223319
      7374.99       1.1309129    0.0054086578
      7382.37       1.1356040    0.0053954573
      7389.75       1.1387630    0.0053824226
      7397.14       1.1456371    0.0053701980
      7404.53       1.1523460    0.0053586201
      7411.94       1.1523566    0.0053468207
      7419.35       1.1493575    0.0053352631
      7426.77       1.1365755    0.0053239443
      7434.20       1.1136260    0.0052683672
      7441.63       1.0847598    0.0052572653
      7449.07       1.0551871    0.0052467415
      7456.52       1.0223188    0.0052028812
      7463.98      0.98613896    0.0052335234
      7471.45      0.94824738    0.0052899695
      7478.92      0.90258343    0.0053210632
      7486.40      0.85084541    0.0052867361
      7493.88      0.80095108    0.0052813104
      7501.38      0.75509572    0.0053592667
      7508.88      0.71193582    0.0055086735
      7516.39      0.67221471    0.0057317794
      7523.91      0.63749453    0.0060254933
      7531.43      0.61046829    0.0063756324
      7538.96      0.59017510    0.0067594974
      7546.50      0.57564283    0.0071393091
      7554.05      0.56429109    0.0074601596
      7561.60      0.56527672    0.0076556190
      7569.16      0.56947407    0.0076764111
      7576.73      0.58736474    0.0073669154
      7584.31      0.61135780    0.0070561642
      7591.89      0.64301734    0.0066995691
      7599.49      0.67497053    0.0063060510
      7607.09      0.70700358    0.0059537288
      7614.70      0.73265171    0.0056747282
      7622.31      0.75652633    0.0054505763
      7629.93      0.78104566    0.0052627907
      7637.56      0.80146641    0.0051275262
      7645.20      0.81378545    0.0050430450
      7652.85      0.82255981    0.0049359294
      7660.50      0.83134024    0.0048751559
      7668.16      0.84108553    0.0048232247
      7675.83      0.84992852    0.0047808949
      7683.50      0.85687746    0.0047468179
      7691.19      0.86087145    0.0047188266
      7698.88      0.86563032    0.0046951661
      7706.58      0.86972204    0.0046740748
      7714.29      0.87024836    0.0046152394
      7722.00      0.87147038    0.0045966105
      7729.73      0.87478733    0.0045787159
      7737.45      0.87666015    0.0045951916
      7745.19      0.87351004    0.0045043180
      7752.94      0.87158435    0.0044862138
      7760.69      0.86539488    0.0043997624
      7768.45      0.85900710    0.0043468974
      7776.22      0.85461583    0.0042660891
      7784.00      0.84772582    0.0042495258
      7791.78      0.83877989    0.0041728916
      7799.57      0.82779325    0.0041259877
      7807.37      0.81872238    0.0040549196
      7815.18      0.81150039    0.0040104529
      7822.99      0.80584312    0.0039690732
      7830.82      0.79809144    0.0039236494
      7838.65      0.78945013    0.0038562468
      7846.49      0.78427212    0.0038124586
      7854.34      0.78041812    0.0037473614
      7862.19      0.77373120    0.0037037004
      7870.05      0.76590907    0.0036652825
      7877.93      0.75618351    0.0036222104
      7885.80      0.74526465    0.0035610883
      7893.69      0.73383686    0.0035189818
      7901.58      0.72155647    0.0034607133
      7909.49      0.70982810    0.0034204271
      7917.40      0.69745638    0.0033859507
      7925.31      0.68394589    0.0033465273
      7933.24      0.67170477    0.0032924897
      7941.17      0.65926699    0.0032537998
      7949.11      0.64547015    0.0032025702
      7957.06      0.63249397    0.0031669633
      7965.02      0.61844293    0.0031185559
      7972.98      0.60659869    0.0030834648
      7980.96      0.59200689    0.0030361598
      7988.94      0.57615609    0.0030009382
      7996.93      0.55844112    0.0029714338
      8004.93      0.54248605    0.0029394222
      8012.93      0.52476359    0.0029661830
      8020.95      0.50711885    0.0030080847
      8028.97      0.48789604    0.0030524134
      8036.99      0.46894235    0.0031263001
      8045.03      0.44912318    0.0032055237
      8053.08      0.42871666    0.0032955865
      8061.13      0.40662291    0.0034268416
      8069.20      0.38420706    0.0036341982
      8077.26      0.36211911    0.0038785842
      8085.34      0.34029072    0.0041361986
      8093.43      0.31674976    0.0046090384
      8101.52      0.28988701    0.0051550505
      8109.62      0.26134578    0.0057295477
      8117.73      0.23198683    0.0065875401
      8125.85      0.20167527    0.0078611116
      8133.98      0.17050250    0.0092339423
