# starting wavelength =        5092.1400
# ending wavelength =        10384.000
# O2 telluric scale =        0
# O2 telluric shift =        0
# H2O telluric scale =        0
# H2O telluric shift =        0
      5095.01       2.0876604     0.042255062
      5100.11       2.0713234     0.035886683
      5105.21       2.0569462     0.031569990
      5110.31       2.0492243     0.027460420
      5115.42       2.0449758     0.024203758
      5120.54       2.0470925     0.021246691
      5125.66       2.0529049     0.019366447
      5130.79       2.0656377     0.017910089
      5135.92       2.0775649     0.016964147
      5141.05       2.0876155     0.016037459
      5146.20       2.0915714     0.015317612
      5151.34       2.1045212     0.014632616
      5156.49       2.1151238     0.014194919
      5161.65       2.1252769     0.013818620
      5166.81       2.1324903     0.013507606
      5171.98       2.1358329     0.013248176
      5177.15       2.1374264     0.012947998
      5182.33       2.1379555     0.012764809
      5187.51       2.1352700     0.012585627
      5192.70       2.1380913     0.012601171
      5197.89       2.1344385     0.012617337
      5203.09       2.1379631     0.012498088
      5208.29       2.1514897     0.012515071
      5213.50       2.1302211     0.012454211
      5218.72       2.1174297     0.012470926
      5223.93       2.0971485     0.012488500
      5229.16       2.0713600     0.012428235
      5234.39       2.0554405     0.012387537
      5239.62       2.0395048     0.012327121
      5244.86       2.0280000     0.012344819
      5250.11       2.0241174     0.012364293
      5255.36       2.0111733     0.012304308
      5260.61       1.9904206     0.012323883
      5265.87       1.9710056     0.012204435
      5271.14       1.9549979     0.012222954
      5276.41       1.9450515     0.012244799
      5281.69       1.9343023     0.012184899
      5286.97       1.9284401     0.012205201
      5292.26       1.9255530     0.012147826
      5297.55       1.9234899     0.012168847
      5302.85       1.9287268     0.012047983
      5308.15       1.9329678     0.012070518
      5313.46       1.9329989     0.012091534
      5318.77       1.9376615     0.012033968
      5324.09       1.9426602     0.012058166
      5329.42       1.9465056     0.011999774
      5334.75       1.9443789     0.012023468
      5340.08       1.9396813     0.011967348
      5345.42       1.9342267     0.011991170
      5350.77       1.9284022     0.011934193
      5356.12       1.9143654     0.011894671
      5361.48       1.9044602     0.011918850
      5366.83       1.8959401     0.011862152
      5372.20       1.8899311     0.011890291
      5377.58       1.8789884     0.011832622
      5382.95       1.8658830     0.011859342
      5388.34       1.8541228     0.011803903
      5393.72       1.8405872     0.011832303
      5399.12       1.8236887     0.011775713
      5404.52       1.8072801     0.011804967
      5409.92       1.7900413     0.011750572
      5415.33       1.7740410     0.011779605
      5420.75       1.7596886     0.011810463
      5426.17       1.7520217     0.011755700
      5431.60       1.7474513     0.011787988
      5437.03       1.7389237     0.011732111
      5442.47       1.7324941     0.011695248
      5447.91       1.7263671     0.011638409
      5453.36       1.7235305     0.011670216
      5458.81       1.7215369     0.011615302
      5464.27       1.7195752     0.011652584
      5469.73       1.7169168     0.011596317
      5475.20       1.7165791     0.011630497
      5480.68       1.7112282     0.011576245
      5486.16       1.7119665     0.011615688
      5491.65       1.7189475     0.011559907
      5497.14       1.7163606     0.011596509
      5502.64       1.7155915     0.011542575
      5508.14       1.7222615     0.011584884
      5513.65       1.7257291     0.011529396
      5519.16       1.7306634     0.011568387
      5524.68       1.7241067     0.011514823
      5530.20       1.7227792     0.011560376
      5535.73       1.7161190     0.011505215
      5541.27       1.7064766     0.011546637
      5546.81       1.6992232     0.011578003
      5552.36       1.6886715     0.011624228
      5557.91       1.6754972     0.011572189
      5563.47       1.6598918     0.011619838
      5569.04       1.6395625     0.011565979
      5574.60       1.6221043     0.011614690
      5580.18       1.6068134     0.011562543
      5585.76       1.5897576     0.011511521
      5591.35       1.5745624     0.011561568
      5596.94       1.5591176     0.011508533
      5602.53       1.5425948     0.011560499
      5608.14       1.5310395     0.011509090
      5613.75       1.5200850     0.011565710
      5619.36       1.4999023     0.011512203
      5624.98       1.4935785     0.011567031
      5630.60       1.4886085     0.011514947
      5636.23       1.4786274     0.011463882
      5641.87       1.4596480     0.011413769
      5647.51       1.4463486     0.011269096
      5653.16       1.4340300     0.011217725
      5658.82       1.4207674     0.011167371
      5664.47       1.4113943     0.011221806
      5670.14       1.4050433     0.011172638
      5675.81       1.3964876     0.011033828
      5681.48       1.3941630     0.010983609
      5687.17       1.3896319     0.010934329
      5692.85       1.3884538     0.010885718
      5698.55       1.3852093     0.010837857
      5704.25       1.3840301     0.010701805
      5709.95       1.3856036     0.010758061
      5715.66       1.3956196     0.010709516
      5721.38       1.4118779     0.010661727
      5727.10       1.4193373     0.010614645
      5732.83       1.4337797     0.010568253
      5738.56       1.4479812     0.010435702
      5744.30       1.4527150     0.010390743
      5750.04       1.4639592     0.010346406
      5755.79       1.4753009     0.010302658
      5761.55       1.4851248     0.010259344
      5767.31       1.5013224     0.010310007
      5773.08       1.5164294     0.010265466
      5778.85       1.5261378     0.010137124
      5784.63       1.5355709     0.010094035
      5790.41       1.5524626     0.010051366
      5796.21       1.5671484     0.010009109
      5802.00       1.5894774    0.0099673999
      5807.81       1.6108907    0.0099264351
      5813.61       1.6279081    0.0098863896
      5819.43       1.6459335    0.0098474235
      5825.25       1.6639904    0.0097289156
      5831.07       1.6924982    0.0096890102
      5836.90       1.7061710    0.0096500894
      5842.74       1.7251656    0.0096133143
      5848.58       1.7322596    0.0095802687
      5854.43       1.7284834    0.0095497287
      5860.29       1.7269495    0.0095195043
      5866.15       1.7202615    0.0095743023
      5872.01       1.7007588    0.0095460795
      5877.89       1.6856338    0.0095183260
      5883.76       1.6690158    0.0094131875
      5889.65       1.6533659    0.0093792006
      5895.54       1.6359520    0.0093440183
      5901.43       1.6135463    0.0093079311
      5907.34       1.5974864    0.0092705744
      5913.24       1.5814918    0.0092321056
      5919.16       1.5620436    0.0091935611
      5925.08       1.5499125    0.0091559141
      5931.00       1.5379308    0.0091188556
      5936.93       1.5316182    0.0090813552
      5942.87       1.5398642    0.0090429799
      5948.81       1.5414209    0.0090038742
      5954.76       1.5473117    0.0089646242
      5960.72       1.5385477    0.0089258823
      5966.68       1.5299380    0.0088869630
      5972.64       1.5219006    0.0088470554
      5978.62       1.5105089    0.0087378076
      5984.60       1.4953632    0.0087007870
      5990.58       1.4897234    0.0086654561
      5996.57       1.4862798    0.0086295847
      6002.57       1.4798774    0.0085935395
      6008.57       1.4641464    0.0084856335
      6014.58       1.4503644    0.0084531912
      6020.60       1.4435401    0.0084215415
      6026.62       1.4354187    0.0083903885
      6032.65       1.4285783    0.0083599885
      6038.68       1.4244867    0.0083303443
      6044.72       1.4201826    0.0083009622
      6050.76       1.4227186    0.0082717671
      6056.81       1.4283810    0.0082430119
      6062.87       1.4336455    0.0082147312
      6068.93       1.4342854    0.0081867853
      6075.00       1.4349604    0.0081591798
      6081.08       1.4331905    0.0081318382
      6087.16       1.4315194    0.0081048831
      6093.25       1.4289607    0.0080783033
      6099.34       1.4272944    0.0080519767
      6105.44       1.4257542    0.0079551602
      6111.54       1.4229914    0.0079291492
      6117.66       1.4144172    0.0079034314
      6123.78       1.4018755    0.0078779895
      6129.90       1.3982007    0.0078528785
      6136.03       1.3995872    0.0078899297
      6142.17       1.3980015    0.0078653081
      6148.31       1.3990243    0.0078409765
      6154.46       1.4114782    0.0078170087
      6160.61       1.4331593    0.0077933149
      6166.77       1.4616550    0.0077051078
      6172.94       1.5022509    0.0076814783
      6179.11       1.5590242    0.0076582236
      6185.29       1.6363056    0.0076352604
      6191.48       1.7230734    0.0076128602
      6197.67       1.8102322    0.0075915793
      6203.87       1.9039365    0.0075729145
      6210.07       1.9999852    0.0075553557
      6216.28       2.0990186    0.0074727915
      6222.50       2.1882487    0.0074531160
      6228.72       2.2681868    0.0074380902
      6234.95       2.3422699    0.0074856024
      6241.19       2.4049290    0.0074784494
      6247.42       2.4656240    0.0074745643
      6253.67       2.5153631    0.0074723696
      6259.93       2.5502217    0.0074104770
      6266.19       2.5823297    0.0074056535
      6272.46       2.6106581    0.0073976178
      6278.73       2.6303292    0.0073852298
      6285.01       2.6415155    0.0073678736
      6291.29       2.6485606    0.0072807372
      6297.58       2.6548136    0.0073084107
      6303.88       2.6507019    0.0072776012
      6310.19       2.6311420    0.0072468091
      6316.50       2.5967807    0.0072186453
      6322.81       2.5601210    0.0071951859
      6329.14       2.5134687    0.0071132620
      6335.47       2.4592282    0.0070895660
      6341.80       2.3935718    0.0071204164
      6348.14       2.3228563    0.0071005104
      6354.49       2.2498615    0.0070815372
      6360.85       2.1746705    0.0070053984
      6367.21       2.0975297    0.0069871136
      6373.57       2.0229599    0.0069699010
      6379.95       1.9497155    0.0069537851
      6386.33       1.8850814    0.0069378531
      6392.72       1.8209851    0.0069225435
      6399.11       1.7626599    0.0069084290
      6405.51       1.7052594    0.0068952376
      6411.92       1.6468208    0.0068295287
      6418.32       1.5971708    0.0068182606
      6424.74       1.5505184    0.0068599012
      6431.17       1.5073451    0.0068506723
      6437.60       1.4709533    0.0067920994
      6444.04       1.4389008    0.0067871876
      6450.48       1.4074012    0.0067815920
      6456.94       1.3855620    0.0068267801
      6463.39       1.3678818    0.0067670458
      6469.85       1.3509199    0.0067600323
      6476.33       1.3362338    0.0067525486
      6482.80       1.3200858    0.0067442120
      6489.28       1.3000029    0.0067303767
      6495.77       1.2946540    0.0067188357
      6502.27       1.2916235    0.0067076919
      6508.77       1.2979736    0.0066440344
      6515.28       1.3105241    0.0066845382
      6521.80       1.3188000    0.0066755787
      6528.32       1.3317091    0.0066675600
      6534.85       1.3553128    0.0066064557
      6541.38       1.3758054    0.0065964903
      6547.92       1.3951497    0.0066371314
      6554.47       1.4042796    0.0065762159
      6561.03       1.4080632    0.0065667050
      6567.59       1.4051374    0.0065584195
      6574.16       1.3974594    0.0065497646
      6580.73       1.3873672    0.0065394234
      6587.31       1.3675272    0.0065310238
      6593.90       1.3392031    0.0065262232
      6600.50       1.3100834    0.0065189973
      6607.10       1.2781986    0.0065127934
      6613.70       1.2503993    0.0064598210
      6620.32       1.2234833    0.0065045908
      6626.94       1.2007231    0.0064994266
      6633.57       1.1881825    0.0064473806
      6640.20       1.1808432    0.0064442429
      6646.84       1.1651399    0.0064884369
      6653.49       1.1621290    0.0064376216
      6660.14       1.1629021    0.0064353115
      6666.80       1.1580692    0.0064804661
      6673.47       1.1507844    0.0064304706
      6680.14       1.1457405    0.0064289719
      6686.82       1.1401068    0.0064275118
      6693.51       1.1322228    0.0064256506
      6700.20       1.1271984    0.0064249631
      6706.90       1.1193355    0.0064242973
      6713.61       1.1114921    0.0064232627
      6720.32       1.1071442    0.0063757850
      6727.05       1.1016477    0.0064232860
      6733.77       1.0936671    0.0064233393
      6740.51       1.0885916    0.0063761281
      6747.25       1.0799131    0.0064247136
      6754.00       1.0760561    0.0063792633
      6760.75       1.0761953    0.0063788011
      6767.51       1.0720054    0.0064285493
      6774.28       1.0653742    0.0063832948
      6781.05       1.0586765    0.0063862526
      6787.84       1.0503546    0.0064092982
      6794.62       1.0482570    0.0064294624
      6801.42       1.0466226    0.0063901949
      6808.22       1.0426499    0.0064333572
      6815.03       1.0396542    0.0064517939
      6821.85       1.0361860    0.0065119219
      6828.67       1.0351825    0.0065731549
      6835.50       1.0296137    0.0066166254
      6842.33       1.0240047    0.0067759630
      6849.17       1.0220517    0.0068335856
      6856.02       1.0144527    0.0069247438
      6862.88       1.0061973    0.0070247966
      6869.74       1.0029304    0.0070742274
      6876.61      0.99560069    0.0070983829
      6883.49      0.99116839    0.0070831364
      6890.37      0.98553212    0.0069766261
      6897.27      0.97999985    0.0069631923
      6904.16      0.97602530    0.0068957585
      6911.07      0.97182940    0.0068130594
      6917.98      0.97029948    0.0067729710
      6924.89      0.97382692    0.0067413749
      6931.82      0.97783627    0.0067055895
      6938.75      0.97852552    0.0066183026
      6945.69      0.98488575    0.0066444600
      6952.64      0.98930740    0.0065839594
      6959.59      0.99158054    0.0065730374
      6966.55      0.99541265    0.0065650500
      6973.52       1.0082575    0.0065658285
      6980.49       1.0192500    0.0065669419
      6987.47       1.0264170    0.0065776411
      6994.46       1.0333199    0.0065832964
      7001.46       1.0407197    0.0065949770
      7008.46       1.0475598    0.0065982177
      7015.46       1.0576907    0.0066050573
      7022.48       1.0653455    0.0066045727
      7029.51       1.0715740    0.0065620011
      7036.53       1.0808332    0.0066119426
      7043.57       1.0897491    0.0065725638
      7050.62       1.0988009    0.0065795386
      7057.66       1.1042148    0.0065848694
      7064.72       1.1074712    0.0065932153
      7071.79       1.1095807    0.0066010553
      7078.86       1.1127285    0.0066128748
      7085.94       1.1181850    0.0066261343
      7093.03       1.1256351    0.0066468028
      7100.12       1.1374047    0.0066192403
      7107.22       1.1543315    0.0066884740
      7114.33       1.1665900    0.0067172403
      7121.44       1.1863655    0.0067451534
      7128.56       1.2107646    0.0067958048
      7135.69       1.2448772    0.0068139323
      7142.83       1.2828120    0.0069370670
      7149.97       1.3318753    0.0069847244
      7157.12       1.3893382    0.0071241543
      7164.28       1.4642373    0.0071527866
      7171.44       1.5535697    0.0072240666
      7178.62       1.6340337    0.0072611869
      7185.80       1.7142590    0.0072982519
      7192.98       1.7909296    0.0073204227
      7200.17       1.8597477    0.0073217695
      7207.38       1.9346975    0.0073229452
      7214.58       1.9935667    0.0073227606
      7221.80       2.0426144    0.0073374065
      7229.02       2.0711298    0.0073097669
      7236.25       2.0864565    0.0073882683
      7243.49       2.0869230    0.0074193834
      7250.73       2.0828804    0.0073836313
      7257.98       2.0719745    0.0074445168
      7265.24       2.0544778    0.0073894375
      7272.51       2.0217316    0.0073753072
      7279.78       1.9882097    0.0074147538
      7287.06       1.9617076    0.0073567994
      7294.35       1.9399304    0.0073446642
      7301.64       1.9256219    0.0072765946
      7308.94       1.9030076    0.0073076841
      7316.25       1.8738175    0.0072876767
      7323.57       1.8454111    0.0072252373
      7330.89       1.8227051    0.0072669635
      7338.22       1.8040097    0.0072617017
      7345.56       1.7832433    0.0072131407
      7352.91       1.7496501    0.0072679204
      7360.26       1.7074956    0.0072268406
      7367.62       1.6578054    0.0072395805
      7374.99       1.6134181    0.0072519505
      7382.37       1.5758902    0.0072574077
      7389.75       1.5423948    0.0072702919
      7397.14       1.5075326    0.0072862077
      7404.53       1.4621648    0.0072520347
      7411.94       1.4122497    0.0073164495
      7419.35       1.3712240    0.0073380782
      7426.77       1.3382754    0.0073078179
      7434.20       1.3050084    0.0073298484
      7441.63       1.2690153    0.0073992446
      7449.07       1.2295067    0.0073723369
      7456.52       1.1933786    0.0073973109
      7463.98       1.1622335    0.0074232864
      7471.45       1.1332307    0.0074961810
      7478.92       1.1063374    0.0074703911
      7486.40       1.0830639    0.0074978216
      7493.88       1.0574033    0.0075272038
      7501.38       1.0333249    0.0075156444
      7508.88       1.0093407    0.0076340080
      7516.39      0.99108912    0.0077548942
      7523.91      0.97860022    0.0078469618
      7531.43      0.96202372    0.0077763775
      7538.96      0.94971776    0.0078423977
      7546.50      0.93109994    0.0080444418
      7554.05      0.91866163    0.0083374101
      7561.60      0.90922831    0.0086759539
      7569.16      0.90141349    0.0092115956
      7576.73      0.88749034    0.0098453775
      7584.31      0.86933570     0.010511110
      7591.89      0.86898999     0.011059104
      7599.49      0.87945202     0.011675154
      7607.09      0.88338496     0.012081761
      7614.70      0.87966217     0.012174499
      7622.31      0.89949183     0.011874966
      7629.93      0.91254172     0.011438771
      7637.56      0.90847479     0.010989149
      7645.20      0.89886632     0.010364473
      7652.85      0.89056332    0.0098148628
      7660.50      0.88832555    0.0094059046
      7668.16      0.88591013    0.0090747147
      7675.83      0.87815947    0.0087959957
      7683.50      0.86883011    0.0086165784
      7691.19      0.86463170    0.0085339563
      7698.88      0.85937044    0.0084871992
      7706.58      0.85041626    0.0084333116
      7714.29      0.84075894    0.0083974740
      7722.00      0.84337976    0.0083817264
      7729.73      0.85379274    0.0083832068
      7737.45      0.86348735    0.0083428624
      7745.19      0.87004729    0.0083636714
      7752.94      0.87707234    0.0083906463
      7760.69      0.88206206    0.0084208870
      7768.45      0.89252357    0.0084534182
      7776.22      0.89534151    0.0084881920
      7784.00      0.89769030    0.0085724537
      7791.78      0.90680272    0.0085466650
      7799.57      0.91739452    0.0085823217
      7807.37      0.92465520    0.0086187529
      7815.18      0.92591782    0.0086553694
      7822.99      0.91426880    0.0086927564
      7830.82      0.89928113    0.0087321073
      7838.65      0.89207083    0.0087734663
      7846.49      0.88203588    0.0088160098
      7854.34      0.87489343    0.0087974902
      7862.19      0.86476679    0.0088428557
      7870.05      0.84957800    0.0088890059
      7877.93      0.83491488    0.0089326644
      7885.80      0.82492396    0.0089728089
      7893.69      0.81534864    0.0090115146
      7901.58      0.80735849    0.0090495288
      7909.49      0.79680386    0.0090871705
      7917.40      0.78914454    0.0091245426
      7925.31      0.78926624    0.0091613772
      7933.24      0.80007677    0.0091986555
      7941.17      0.81083713    0.0091729559
      7949.11      0.81762131    0.0092131494
      7957.06      0.81980944    0.0092546722
      7965.02      0.82308809    0.0092958107
      7972.98      0.81745840    0.0093371661
      7980.96      0.81260278    0.0093783647
      7988.94      0.81440542    0.0094182279
      7996.93      0.82154143    0.0094558939
      8004.93      0.82660741    0.0094929515
      8012.93      0.82232559    0.0095313010
      8020.95      0.81122394    0.0095706923
      8028.97      0.80501719    0.0096084698
      8036.99      0.79808872    0.0096462324
      8045.03      0.78895004    0.0096378560
      8053.08      0.77700464    0.0096849153
      8061.13      0.76482420    0.0097387206
      8069.20      0.75118449    0.0098014008
      8077.26      0.74152709    0.0098711519
      8085.34      0.74054231    0.0099522148
      8093.43      0.73849235     0.010050827
      8101.52      0.73270810     0.010167380
      8109.62      0.72420042     0.010296962
      8117.73      0.71369526     0.010435481
      8125.85      0.70403740     0.010586119
      8133.98      0.70070744     0.010742825
      8142.11      0.70539998     0.010813689
      8150.25      0.69879204     0.010888672
      8158.41      0.68774293     0.010947336
      8166.56      0.68952003     0.010998481
      8174.73      0.69093506     0.011037765
      8182.91      0.68939298     0.011068766
      8191.09      0.68228912     0.011090366
      8199.28      0.67824061     0.011040464
      8207.48      0.68133825     0.011050103
      8215.69      0.68733812     0.011139102
      8223.91      0.68401239     0.011165180
      8232.13      0.67438195     0.011187292
      8240.36      0.66908370     0.011201407
      8248.60      0.65713404     0.011212714
      8256.85      0.65386224     0.011155896
      8265.11      0.64712298     0.011161139
      8273.37      0.64357643     0.011169132
      8281.65      0.64470164     0.011197190
      8289.93      0.64462435     0.011242639
      8298.22      0.63478249     0.011198305
      8306.52      0.61538941     0.011248436
      8314.83      0.60858063     0.011237555
      8323.14      0.61599985     0.011234257
      8331.46      0.62325065     0.011234079
      8339.80      0.63698736     0.011175973
      8348.13      0.65082692     0.011186318
      8356.48      0.66549437     0.011193870
      8364.84      0.68942955     0.011204758
      8373.21      0.70439806     0.011231508
      8381.58      0.70008463     0.011256140
      8389.96      0.69968631     0.011283028
      8398.35      0.70639171     0.011309775
      8406.75      0.71154394     0.011339432
      8415.16      0.72364242     0.011310474
      8423.57      0.72753842     0.011418698
      8432.00      0.71918591     0.011454899
      8440.43      0.70691772     0.011493081
      8448.87      0.70142189     0.011472084
      8457.32      0.70381377     0.011513249
      8465.78      0.70372010     0.011629919
      8474.25      0.71048194     0.011611679
      8482.72      0.72583756     0.011655678
      8491.20      0.74258030     0.011700002
      8499.69      0.76366686     0.011745155
      8508.19      0.79248293     0.011799288
      8516.70      0.83034844     0.011840863
      8525.22      0.87883091     0.011882410
      8533.75      0.93382481     0.011857982
      8542.28      0.99694779     0.011897286
      8550.82       1.0750422     0.012014669
      8559.37       1.1424727     0.011991726
      8567.93       1.1948189     0.012031926
      8576.50       1.2491972     0.012072073
      8585.08       1.2984632     0.012126716
      8593.66       1.3416762     0.012167498
      8602.26       1.3908997     0.012210878
      8610.86       1.4380759     0.012192544
      8619.47       1.4743286     0.012314146
      8628.09       1.4873997     0.012358136
      8636.72       1.4899591     0.012338920
      8645.36       1.4910570     0.012461774
      8654.00       1.4898050     0.012439922
      8662.66       1.5037664     0.012483361
      8671.32       1.5340909     0.012527315
      8679.99       1.5724981     0.012580804
      8688.67       1.5957934     0.012622861
      8697.36       1.6023088     0.012666060
      8706.06       1.5870907     0.012719326
      8714.76       1.5759751     0.012762678
      8723.48       1.5508315     0.012739317
      8732.21       1.5237999     0.012863873
      8740.93       1.5003325     0.012908715
      8749.68       1.4631840     0.012885087
      8758.43       1.4240786     0.013012456
      8767.19       1.3797649     0.012990431
      8775.96       1.3227721     0.013034945
      8784.73       1.2523430     0.013095901
      8793.52       1.1884566     0.013139768
      8802.31       1.1296278     0.013118476
      8811.11       1.1003673     0.013245938
      8819.92       1.0742978     0.013291927
      8828.75       1.0393850     0.013273975
      8837.57       1.0125997     0.013403176
      8846.41      0.96566744     0.013389110
      8855.26      0.92387313     0.013528254
      8864.12      0.87442792     0.013526522
      8872.98      0.82822499     0.013591544
      8881.85      0.80979543     0.013688563
      8890.73      0.78729214     0.013786986
      8899.63      0.75808544     0.013924515
      8908.52      0.71752826     0.014060051
      8917.43      0.68556491     0.014175246
      8926.35      0.66679199     0.014470622
      8935.28      0.64646541     0.014636868
      8944.22      0.61855778     0.014974281
      8953.16      0.60016523     0.015154782
      8962.11      0.59865111     0.015479245
      8971.08      0.61050570     0.015578424
      8980.05      0.64267802     0.015682906
      8989.03      0.64753629     0.015735313
      8998.02      0.63297465     0.015645183
      9007.02      0.63584233     0.015695823
      9016.02      0.63964163     0.015589968
      9025.04      0.65613070     0.015677129
      9034.07      0.65311715     0.015636751
      9043.10      0.64835688     0.015773726
      9052.14      0.64515090     0.015792003
      9061.20      0.63730271     0.016019614
      9070.26      0.61453167     0.016060803
      9079.33      0.59238703     0.016206783
      9088.41      0.59292054     0.016304432
      9097.50      0.59026800     0.016394630
      9106.60      0.58687177     0.016445303
      9115.70      0.57487377     0.016498368
      9124.82      0.58008453     0.016438627
      9133.94      0.59797560     0.016562601
      9143.08      0.61594755     0.016470009
      9152.22      0.62157446     0.016428974
      9161.37      0.61443317     0.016365893
      9170.54      0.61582791     0.016297201
      9179.71      0.62106868     0.016247196
      9188.89      0.62710549     0.016201858
      9198.08      0.64053864     0.016208906
      9207.28      0.64882876     0.016246192
      9216.48      0.63847410     0.016341474
      9225.70      0.62232561     0.016425038
      9234.92      0.61178025     0.016720358
      9244.16      0.59774727     0.016954652
      9253.40      0.58509400     0.017440852
      9262.66      0.57302994     0.018143154
      9271.92      0.55170899     0.018818670
      9281.20      0.53169970     0.019879587
      9290.48      0.50247160     0.020859870
      9299.77      0.48722596     0.022180279
      9309.07      0.47851123     0.023510594
      9318.38      0.45898933     0.024400268
      9327.69      0.39379759     0.025362363
      9337.02      0.36813098     0.025572630
      9346.36      0.40902071     0.025587629
      9355.71      0.44356440     0.025515518
      9365.07      0.45554189     0.024848183
      9374.43      0.48512857     0.024322839
      9383.80      0.49479320     0.023936685
      9393.19      0.48159668     0.023776056
      9402.58      0.48572744     0.023723912
      9411.98      0.50998528     0.023909150
      9421.40      0.51801479     0.023962972
      9430.82      0.52505461     0.024274544
      9440.25      0.53541963     0.024480631
      9449.69      0.55215326     0.024418036
      9459.14      0.55187712     0.024284738
      9468.60      0.55431393     0.024036903
      9478.07      0.55552554     0.023912300
      9487.55      0.54991329     0.023781870
      9497.04      0.52896929     0.023615798
      9506.53      0.51284658     0.023366065
      9516.04      0.52704949     0.023238882
      9525.56      0.53801225     0.023203535
      9535.08      0.52832709     0.023035986
      9544.62      0.50774758     0.022725902
      9554.16      0.49555106     0.022507210
      9563.72      0.48962380     0.022260193
      9573.29      0.49070740     0.022134612
      9582.85      0.48595608     0.021742327
      9592.44      0.46957564     0.021471383
      9602.03      0.46008254     0.021188560
      9611.63      0.47022314     0.020850131
      9621.25      0.48224602     0.020453506
      9630.87      0.50125426     0.020125066
      9640.50      0.50978244     0.019894660
      9650.14      0.52246303     0.019539345
      9659.79      0.52370991     0.019182670
      9669.45      0.54028827     0.018957279
      9679.12      0.56303454     0.018783432
      9688.80      0.56750643     0.018682341
      9698.49      0.56809024     0.018647476
      9708.19      0.56492040     0.018570441
      9717.90      0.57370621     0.018623891
      9727.62      0.57842244     0.018678535
      9737.34      0.58188181     0.018805557
      9747.08      0.59930110     0.018798442
      9756.83      0.60896151     0.018749655
      9766.59      0.60280191     0.018592983
      9776.35      0.60098209     0.018515481
      9786.13      0.59873070     0.018427362
      9795.92      0.58092002     0.018341238
      9805.71      0.58427863     0.018267397
      9815.52      0.59041342     0.018204517
      9825.34      0.59427643     0.018144794
      9835.17      0.61487251     0.018003938
      9845.00      0.63281526     0.017953035
      9854.84      0.64714044     0.017920820
      9864.70      0.64724360     0.017736429
      9874.56      0.62172622     0.017565122
      9884.44      0.60488975     0.017399506
      9894.32      0.61655993     0.017242053
      9904.22      0.61577918     0.017099441
      9914.13      0.61965466     0.017041698
      9924.04      0.63087532     0.016913520
      9933.96      0.63769430     0.016790379
      9943.90      0.64543554     0.016673409
      9953.84      0.63930729     0.016561156
      9963.79      0.63313573     0.016456659
      9973.76      0.62085104     0.016354985
      9983.74      0.60615063     0.016255534
      9993.72      0.59408438     0.016159196
