# starting wavelength =        3115.1900
# ending wavelength =        11981.500
# O2 telluric scale =        0
# O2 telluric shift =        0
# H2O telluric scale =        0
# H2O telluric shift =        0
      3115.80      0.93270893     0.052705235
      3118.91      0.90740054     0.044278277
      3122.03      0.89334306     0.036322593
      3125.15      0.87717559     0.031509304
      3128.28      0.86409952     0.028908468
      3131.41      0.85681053     0.025785445
      3134.54      0.85158992     0.022644217
      3137.67      0.85013598     0.020903518
      3140.81      0.84588260     0.019926622
      3143.95      0.82127098     0.018759058
      3147.10      0.81324927     0.017624899
      3150.24      0.81022096     0.016922547
      3153.39      0.80759172     0.016331840
      3156.55      0.81328547     0.016004179
      3159.70      0.81980274     0.015550827
      3162.86      0.81981696     0.015204035
      3166.03      0.82344844     0.014866150
      3169.19      0.82322329     0.014690730
      3172.36      0.82007773     0.014404416
      3175.54      0.82459805     0.014262580
      3178.71      0.82877871     0.014232683
      3181.89      0.83195219     0.014094718
      3185.07      0.83249040     0.014187851
      3188.26      0.84610203     0.014048862
      3191.45      0.85158408     0.014144001
      3194.64      0.85118237     0.014114621
      3197.83      0.85005116     0.014100941
      3201.03      0.84380110     0.014069856
      3204.23      0.85204510     0.014042174
      3207.44      0.85410469     0.014026199
      3210.64      0.85666923     0.013997018
      3213.85      0.84742376     0.014090689
      3217.07      0.84639840     0.013953019
      3220.28      0.83850556     0.014044416
      3223.51      0.84177807     0.013909996
      3226.73      0.83848005     0.013880449
      3229.96      0.84127247     0.013972698
      3233.19      0.83741488     0.013836890
      3236.42      0.83910619     0.013927048
      3239.66      0.82450724     0.013901851
      3242.90      0.81652904     0.013765027
      3246.14      0.81386121     0.013855615
      3249.39      0.80781047     0.013831464
      3252.64      0.79599863     0.013810778
      3255.89      0.78789683     0.013784605
      3259.14      0.77567227     0.013761397
      3262.40      0.76352455     0.013739363
      3265.67      0.76451674     0.013714253
      3268.93      0.76536653     0.013808094
      3272.20      0.76010648     0.013668574
      3275.47      0.76265446     0.013644183
      3278.75      0.75268982     0.013736401
      3282.03      0.74696966     0.013598216
      3285.31      0.73685121     0.013693845
      3288.60      0.72695395     0.013665204
      3291.88      0.71889792     0.013528085
      3295.18      0.71479943     0.013622360
      3298.47      0.70329177     0.013594270
      3301.77      0.69931851     0.013458250
      3305.07      0.69404572     0.013551407
      3308.38      0.68362607     0.013523894
      3311.69      0.67823460     0.013510730
      3315.00      0.67217671     0.013480985
      3318.31      0.66410577     0.013453656
      3321.63      0.66062728     0.013440308
      3324.95      0.66045797     0.013410840
      3328.28      0.65223581     0.013383860
      3331.61      0.65072683     0.013477039
      3334.94      0.65100634     0.013341326
      3338.27      0.65022937     0.013431824
      3341.61      0.64671009     0.013407113
      3344.95      0.64401923     0.013272008
      3348.30      0.63908474     0.013362008
      3351.65      0.63907069     0.013337035
      3355.00      0.63785691     0.013314584
      3358.35      0.64085251     0.013292433
      3361.71      0.64190165     0.013267588
      3365.07      0.64271898     0.013244650
      3368.44      0.65135290     0.013223436
      3371.81      0.66062158     0.013198009
      3375.18      0.66652801     0.013174930
      3378.56      0.67512916     0.013266617
      3381.94      0.68966667     0.013128978
      3385.32      0.70153990     0.013105424
      3388.70      0.71003827     0.013197781
      3392.09      0.71594838     0.013060161
      3395.48      0.72037295     0.013158046
      3398.88      0.72626864     0.013129415
      3402.28      0.74546658     0.013102716
      3405.68      0.76089651     0.013090889
      3409.09      0.77599452     0.013061687
      3412.49      0.78588673     0.013034515
      3415.91      0.79511031     0.013009070
      3419.32      0.80176796     0.012994702
      3422.74      0.81234500     0.012966870
      3426.17      0.81891299     0.012940818
      3429.59      0.82732221     0.013034183
      3433.02      0.83512078     0.012900094
      3436.45      0.84018163     0.012873181
      3439.89      0.84176954     0.012965081
      3443.33      0.84813206     0.012941584
      3446.78      0.84659563     0.012806648
      3450.22      0.84575202     0.012897102
      3453.67      0.84394253     0.012872386
      3457.13      0.84200737     0.012849451
      3460.58      0.84397559     0.012943472
      3464.04      0.84322340     0.012804137
      3467.51      0.84249649     0.012780266
      3470.98      0.84030381     0.012876895
      3474.45      0.84240093     0.012850301
      3477.92      0.84578748     0.012712145
      3481.40      0.84529431     0.012688575
      3484.88      0.84523642     0.012783766
      3488.37      0.84383763     0.012757473
      3491.86      0.84623001     0.012732612
      3495.35      0.84430364     0.012719468
      3498.84      0.84360147     0.012691911
      3502.34      0.84527342     0.012665744
      3505.84      0.85191374     0.012640928
      3509.35      0.85987459     0.012736266
      3512.86      0.86181902     0.012600498
      3516.37      0.85906333     0.012574307
      3519.89      0.85921441     0.012667843
      3523.41      0.86277386     0.012644260
      3526.93      0.86692367     0.012622183
      3530.46      0.86815089     0.012483935
      3533.99      0.86742415     0.012576362
      3537.53      0.86768049     0.012552401
      3541.06      0.85918778     0.012529837
      3544.60      0.85485763     0.012626254
      3548.15      0.84960498     0.012485484
      3551.70      0.84828188     0.012461470
      3555.25      0.84180525     0.012438479
      3558.80      0.84060770     0.012536021
      3562.36      0.84099806     0.012510075
      3565.92      0.84128905     0.012485199
      3569.49      0.83823798     0.012347463
      3573.06      0.83751305     0.012446869
      3576.64      0.83627105     0.012420457
      3580.21      0.83984780     0.012395284
      3583.79      0.83928650     0.012370938
      3587.38      0.83765484     0.012467977
      3590.96      0.83484830     0.012332218
      3594.55      0.83529363     0.012306319
      3598.15      0.83165650     0.012281284
      3601.75      0.82795076     0.012376703
      3605.35      0.82659923     0.012353628
      3608.96      0.82708239     0.012331400
      3612.56      0.82802612     0.012310114
      3616.18      0.82818632     0.012287044
      3619.79      0.83010113     0.012262936
      3623.41      0.83038245     0.012239605
      3627.04      0.82868545     0.012217464
      3630.66      0.82548125     0.012317098
      3634.29      0.82136301     0.012291934
      3637.93      0.81834709     0.012267271
      3641.57      0.81437092     0.012126840
      3645.21      0.81226206     0.012104212
      3648.86      0.81513239     0.012204926
      3652.50      0.82205645     0.012179543
      3656.16      0.82955318     0.012154826
      3659.81      0.83891884     0.012131053
      3663.47      0.84495201     0.012229873
      3667.14      0.84913361     0.012207079
      3670.80      0.85812238     0.012069027
      3674.48      0.86833461     0.012043907
      3678.15      0.87714555     0.012019623
      3681.83      0.88019870     0.012116875
      3685.51      0.88193416     0.012093664
      3689.20      0.87701515     0.012070979
      3692.88      0.86656749     0.012048860
      3696.58      0.86010769     0.012027478
      3700.27      0.85825871     0.012126708
      3703.98      0.85216544     0.012102388
      3707.68      0.83978277     0.011958673
      3711.39      0.82825358     0.011935929
      3715.10      0.81519587     0.011913585
      3718.81      0.80388053     0.012017753
      3722.53      0.79675484     0.011992847
      3726.26      0.78289975     0.011968395
      3729.98      0.76387655     0.011944389
      3733.71      0.74564060     0.011921295
      3737.45      0.72987623     0.012022688
      3741.18      0.72573593     0.012000308
      3744.93      0.72814163     0.011977986
      3748.67      0.73942014     0.011956320
      3752.42      0.74667635     0.011935277
      3756.17      0.74372319     0.011788878
      3759.93      0.73950647     0.011888719
      3763.69      0.73518425     0.011865273
      3767.45      0.73371672     0.011842650
      3771.22      0.73141726     0.011820210
      3774.99      0.73300513     0.011798024
      3778.77      0.73604350     0.011906798
      3782.54      0.73854376     0.011882313
      3786.33      0.74706300     0.011858181
      3790.11      0.76199331     0.011834243
      3793.90      0.76532789     0.011810807
      3797.70      0.75390207     0.011787841
      3801.50      0.74478944     0.011764997
      3805.30      0.74467019     0.011869982
      3809.10      0.74212516     0.011847872
      3812.91      0.74211463     0.011825724
      3816.73      0.73548866     0.011803953
      3820.54      0.73131817     0.011782538
      3824.36      0.74090411     0.011761256
      3828.19      0.76067424     0.011868246
      3832.02      0.79352926     0.011844538
      3835.85      0.82611502     0.011821381
      3839.68      0.86197699     0.011798302
      3843.52      0.88965145     0.011775276
      3847.37      0.91601924     0.011752917
      3851.22      0.94115633     0.011730532
      3855.07      0.97115064     0.011708246
      3858.92       1.0078659     0.011818464
      3862.78       1.0419757     0.011671946
      3866.64       1.0804607     0.011648461
      3870.51       1.1229551     0.011624795
      3874.38       1.1669419     0.011601678
      3878.26       1.2031547     0.011578591
      3882.13       1.2309447     0.011688783
      3886.02       1.2620634     0.011667480
      3889.90       1.2945080     0.011775440
      3893.79       1.3270803     0.011752349
      3897.69       1.3566602     0.011729498
      3901.59       1.3827831     0.011706930
      3905.49       1.4109729     0.011684292
      3909.39       1.4412386     0.011661878
      3913.30       1.4727770     0.011639556
      3917.22       1.5049267     0.011617217
      3921.13       1.5326845     0.011595099
      3925.06       1.5539891     0.011709285
      3928.98       1.5634935     0.011687311
      3932.91       1.5657176     0.011665152
      3936.84       1.5562494     0.011642918
      3940.78       1.5423982     0.011621064
      3944.72       1.5304163     0.011598748
      3948.67       1.5178097     0.011576984
      3952.61       1.5131128     0.011555066
      3956.57       1.5150781     0.011532985
      3960.52       1.5172704     0.011511399
      3964.48       1.5240078     0.011634404
      3968.45       1.5280313     0.011612021
      3972.42       1.5330552     0.011589098
      3976.39       1.5385984     0.011566561
      3980.37       1.5522049     0.011544255
      3984.35       1.5713294     0.011521876
      3988.33       1.6006056     0.011499808
      3992.32       1.6356185     0.011618202
      3996.31       1.6696234     0.011595790
      4000.31       1.6992205     0.011573295
      4004.31       1.7140551     0.011551044
      4008.31       1.7347423     0.011528949
      4012.32       1.7458458     0.011506736
      4016.33       1.7485736     0.011484764
      4020.35       1.7515345     0.011462558
      4024.37       1.7545178     0.011440181
      4028.40       1.7547366     0.011418020
      4032.42       1.7544687     0.011395716
      4036.46       1.7473304     0.011373578
      4040.50       1.7360247     0.011351622
      4044.54       1.7214278     0.011329562
      4048.58       1.7080851     0.011307727
      4052.63       1.6942312     0.011285521
      4056.68       1.6859903     0.011263551
      4060.74       1.6743208     0.011241763
      4064.80       1.6612281     0.011219910
      4068.86       1.6352835     0.011198232
      4072.93       1.5983992     0.011040894
      4077.01       1.5614647     0.011019664
      4081.08       1.5275059     0.010998339
      4085.17       1.5025341     0.010977269
      4089.25       1.4773170     0.010956504
      4093.34       1.4573865     0.010935617
      4097.43       1.4313625     0.010915045
      4101.53       1.4099737     0.010894518
      4105.63       1.3944958     0.010874072
      4109.74       1.3822767     0.010853961
      4113.85       1.3755700     0.010833802
      4117.96       1.3753449     0.010814018
      4122.08       1.3748036     0.010794554
      4126.20       1.3826821     0.010775135
      4130.33       1.3956361     0.010620569
      4134.46       1.4098958     0.010599572
      4138.59       1.4186349     0.010578585
      4142.73       1.4224906     0.010558228
      4146.88       1.4230851     0.010537862
      4151.02       1.4213783     0.010517623
      4155.18       1.4179139     0.010497907
      4159.33       1.4233516     0.010606495
      4163.49       1.4246235     0.010586850
      4167.65       1.4235804     0.010567648
      4171.82       1.4164270     0.010423186
      4175.99       1.4084712     0.010401721
      4180.17       1.4028834     0.010380828
      4184.35       1.4041666     0.010359813
      4188.54       1.4022958     0.010339559
      4192.72       1.4014856     0.010319435
      4196.92       1.4029878     0.010299521
      4201.11       1.4036859     0.010280402
      4205.31       1.4103775     0.010261433
      4209.52       1.4181323     0.010123831
      4213.73       1.4278211     0.010227188
      4217.94       1.4368453     0.010205958
      4222.16       1.4446448     0.010184953
      4226.38       1.4550906     0.010164830
      4230.61       1.4693299     0.010145001
      4234.84       1.4824856     0.010125582
      4239.08       1.4969889    0.0099892302
      4243.32       1.5100216    0.0099709420
      4247.56       1.5203123    0.0099532470
      4251.81       1.5293207    0.0099361787
      4256.06       1.5375632     0.010032941
      4260.32       1.5454707     0.010012747
      4264.58       1.5528325    0.0099930261
      4268.84       1.5535544    0.0098581508
      4273.11       1.5482364    0.0098399652
      4277.38       1.5416024    0.0098224913
      4281.66       1.5360494    0.0098055011
      4285.94       1.5332059    0.0097892549
      4290.23       1.5264932    0.0097736186
      4294.52       1.5244939    0.0097480211
      4298.81       1.5206338    0.0097295644
      4303.11       1.5178808    0.0097119227
      4307.42       1.5127521    0.0096948477
      4311.72       1.5040960    0.0096786197
      4316.04       1.4909856    0.0096630911
      4320.35       1.4727729    0.0095284601
      4324.67       1.4676145    0.0096212411
      4329.00       1.4651975    0.0096037138
      4333.33       1.4663915    0.0095868514
      4337.66       1.4693665    0.0095709400
      4342.00       1.4802892    0.0094413509
      4346.34       1.4863646    0.0094227444
      4350.69       1.4904746    0.0094048505
      4355.04       1.4905945    0.0094976147
      4359.39       1.4959032    0.0094813322
      4363.75       1.5086586    0.0093554110
      4368.12       1.5196119    0.0093365587
      4372.48       1.5305435    0.0093185672
      4376.86       1.5402484    0.0093014195
      4381.23       1.5415201    0.0093938684
      4385.61       1.5399541    0.0092704511
      4390.00       1.5323311    0.0092513070
      4394.39       1.5192620    0.0092333949
      4398.79       1.5076006    0.0092164773
      4403.18       1.4922624    0.0090985757
      4407.59       1.4859752    0.0091859322
      4412.00       1.4819063    0.0091670581
      4416.41       1.4806528    0.0091492801
      4420.82       1.4757754    0.0091328437
      4425.25       1.4723321    0.0090164292
      4429.67       1.4691434    0.0091021106
      4434.10       1.4624125    0.0090836548
      4438.54       1.4632322    0.0090665410
      4442.97       1.4664439    0.0089504053
      4447.42       1.4716429    0.0089360066
      4451.86       1.4824308    0.0090190051
      4456.32       1.4954125    0.0090015466
      4460.77       1.5089969    0.0088858456
      4465.24       1.5279108    0.0088711575
      4469.70       1.5589693    0.0088579785
      4474.17       1.5932016    0.0089373129
      4478.65       1.6329412    0.0088221008
      4483.12       1.6740066    0.0088076677
      4487.61       1.7187709    0.0087945269
      4492.09       1.7731664    0.0087753640
      4496.59       1.8180574    0.0087594626
      4501.08       1.8604760    0.0087451885
      4505.58       1.9000568    0.0087321513
      4510.09       1.9396469    0.0086172419
      4514.60       1.9751866    0.0086978667
      4519.12       2.0000726    0.0086838392
      4523.63       2.0331521    0.0086712983
      4528.16       2.0587429    0.0085566416
      4532.69       2.0819620    0.0086369778
      4537.22       2.1086342    0.0086233587
      4541.76       2.1301729    0.0085125754
      4546.30       2.1491246    0.0084967718
      4550.85       2.1682897    0.0085771542
      4555.40       2.1848774    0.0084696887
      4559.95       2.1964854    0.0084529739
      4564.51       2.2071673    0.0084379253
      4569.08       2.2178010    0.0085187061
      4573.65       2.2256722    0.0084101555
      4578.22       2.2292162    0.0083944351
      4582.80       2.2297848    0.0083805570
      4587.38       2.2273242    0.0083679696
      4591.97       2.2223734    0.0083516444
      4596.56       2.2151519    0.0083371704
      4601.16       2.2046417    0.0083261688
      4605.76       2.1928886    0.0083093810
      4610.37       2.1861270    0.0082945775
      4614.98       2.1709860    0.0081939656
      4619.59       2.1619007    0.0082678007
      4624.21       2.1525613    0.0082526597
      4628.84       2.1347859    0.0081520570
      4633.47       2.1149609    0.0082264523
      4638.10       2.0947011    0.0082112399
      4642.74       2.0681429    0.0081110951
      4647.38       2.0438509    0.0081857626
      4652.03       2.0230144    0.0081702556
      4656.68       2.0049142    0.0080705792
      4661.34       1.9869164    0.0080597462
      4666.00       1.9671598    0.0081298118
      4670.67       1.9466546    0.0080307723
      4675.33       1.9236699    0.0080202121
      4680.01       1.8983418    0.0080039324
      4684.69       1.8820711    0.0079913911
      4689.38       1.8650866    0.0079813038
      4694.07       1.8451852    0.0079649459
      4698.76       1.8257003    0.0079529107
      4703.46       1.8065923    0.0079431592
      4708.16       1.7957594    0.0079263167
      4712.87       1.7828555    0.0079147703
      4717.58       1.7710470    0.0078181017
      4722.30       1.7585014    0.0078883906
      4727.03       1.7462233    0.0078776199
      4731.75       1.7335526    0.0077803748
      4736.48       1.7255210    0.0078510286
      4741.22       1.7161209    0.0077571001
      4745.96       1.7044147    0.0077432185
      4750.71       1.6868538    0.0078145744
      4755.46       1.6672827    0.0077197687
      4760.22       1.6478249    0.0077067374
      4764.97       1.6251186    0.0076974609
      4769.74       1.6057730    0.0076831404
      4774.51       1.5882190    0.0077534980
      4779.29       1.5688214    0.0076604188
      4784.07       1.5537171    0.0076474172
      4788.85       1.5368878    0.0076389115
      4793.64       1.5298563    0.0076243382
      4798.43       1.5292006    0.0076127941
      4803.23       1.5353856    0.0076023831
      4808.03       1.5445466    0.0075893982
      4812.84       1.5553572    0.0075809849
      4817.66       1.5629594    0.0075667227
      4822.48       1.5715979    0.0074789601
      4827.30       1.5831487    0.0075451748
      4832.12       1.5880484    0.0075327242
      4836.96       1.5878168    0.0074472765
      4841.79       1.5872476    0.0075105769
      4846.63       1.5840038    0.0074242612
      4851.48       1.5770267    0.0074890231
      4856.33       1.5674018    0.0074020622
      4861.19       1.5570620    0.0074681620
      4866.05       1.5469733    0.0073803307
      4870.92       1.5410359    0.0073714849
      4875.79       1.5353256    0.0073590811
      4880.66       1.5268197    0.0073497913
      4885.55       1.5279338    0.0073385889
      4890.43       1.5335931    0.0073282015
      4895.32       1.5442119    0.0073213998
      4900.22       1.5545036    0.0073073326
      4905.12       1.5685347    0.0072999284
      4910.02       1.5891367    0.0072868667
      4914.94       1.6132480    0.0072788836
      4919.85       1.6447404    0.0072666907
      4924.77       1.6760786    0.0072581925
      4929.70       1.7117958    0.0071729024
      4934.62       1.7519230    0.0072379612
      4939.56       1.7895230    0.0071535821
      4944.50       1.8235011    0.0072181113
      4949.44       1.8575689    0.0071343528
      4954.39       1.8914520    0.0071983973
      4959.35       1.9171776    0.0071155772
      4964.31       1.9375329    0.0071793394
      4969.27       1.9469652    0.0070969239
      4974.24       1.9413408    0.0071602723
      4979.22       1.9267503    0.0070784300
      4984.20       1.9017110    0.0070689115
      4989.18       1.8666463    0.0070602685
      4994.17       1.8270257    0.0070507113
      4999.16       1.7764059    0.0070421217
      5004.16       1.7263651    0.0069642453
      5009.17       1.6743232    0.0070242454
      5014.18       1.6234872    0.0069468076
      5019.19       1.5762889    0.0070066835
      5024.21       1.5340766    0.0069295662
      5029.23       1.5001578    0.0069890867
      5034.26       1.4718690    0.0069125767
      5039.30       1.4488350    0.0069718019
      5044.34       1.4365141    0.0068960813
      5049.39       1.4375667    0.0069548246
      5054.43       1.4449922    0.0068795522
      5059.49       1.4588688    0.0069379065
      5064.55       1.4831812    0.0068636093
      5069.61       1.5083942    0.0068544468
      5074.68       1.5371252    0.0068479424
      5079.76       1.5747508    0.0068382854
      5084.84       1.6088751    0.0068326448
      5089.92       1.6465676    0.0068226919
      5095.01       1.6773277    0.0068178688
      5100.11       1.7097052    0.0068074133
      5105.21       1.7356404    0.0067329997
      5110.31       1.7592712    0.0067925131
      5115.42       1.7869226    0.0067844209
      5120.54       1.8106965    0.0067781367
      5125.66       1.8302947    0.0067694310
      5130.79       1.8388259    0.0066968170
      5135.92       1.8463886    0.0067548404
      5141.05       1.8500172    0.0066817227
      5146.20       1.8562565    0.0067408611
      5151.34       1.8567293    0.0066671860
      5156.49       1.8628307    0.0066621957
      5161.65       1.8719819    0.0066530593
      5166.81       1.8819892    0.0066472514
      5171.98       1.8945954    0.0067055663
      5177.15       1.9143087    0.0066329966
      5182.33       1.9271837    0.0066286627
      5187.51       1.9404798    0.0066192852
      5192.70       1.9506535    0.0066140294
      5197.89       1.9561629    0.0066063048
      5203.09       1.9633053    0.0066002312
      5208.29       1.9729268    0.0065962000
      5213.50       1.9900537    0.0065870954
      5218.72       2.0025572    0.0065820449
      5223.93       2.0044609    0.0065137202
      5229.16       2.0037418    0.0065688670
      5234.39       2.0065715    0.0065647592
      5239.62       2.0009667    0.0064954962
      5244.86       1.9978905    0.0065512385
      5250.11       1.9971198    0.0064842547
      5255.36       2.0008927    0.0064780823
      5260.61       2.0019411    0.0065344730
      5265.87       2.0089237    0.0064669197
      5271.14       2.0190963    0.0064613391
      5276.41       2.0261475    0.0064568222
      5281.69       2.0273480    0.0064502273
      5286.97       2.0252855    0.0064452428
      5292.26       2.0181832    0.0064403281
      5297.55       2.0078867    0.0064341775
      5302.85       2.0015579    0.0063684589
      5308.15       2.0004587    0.0064245358
      5313.46       2.0014990    0.0064187948
      5318.77       1.9997208    0.0063534670
      5324.09       1.9945809    0.0064093861
      5329.42       1.9890513    0.0064039491
      5334.75       1.9835453    0.0063389965
      5340.08       1.9721983    0.0063949374
      5345.42       1.9680114    0.0063896199
      5350.77       1.9580760    0.0063248652
      5356.12       1.9491310    0.0063222319
      5361.48       1.9376151    0.0063759994
      5366.83       1.9272296    0.0063113650
      5372.20       1.9140538    0.0063086372
      5377.58       1.8943508    0.0063627654
      5382.95       1.8752023    0.0062982256
      5388.34       1.8490802    0.0062954931
      5393.72       1.8233999    0.0062937747
      5399.12       1.7984448    0.0062857459
      5404.52       1.7764244    0.0062827739
      5409.92       1.7580505    0.0062809169
      5415.33       1.7449959    0.0062739151
      5420.75       1.7347394    0.0062706616
      5426.17       1.7258224    0.0062684741
      5431.60       1.7208200    0.0062070113
      5437.03       1.7176825    0.0062593393
      5442.47       1.7195441    0.0062567872
      5447.91       1.7232969    0.0061968230
      5453.36       1.7274300    0.0061930298
      5458.81       1.7347600    0.0062457616
      5464.27       1.7395741    0.0061877670
      5469.73       1.7448918    0.0061836984
      5475.20       1.7516540    0.0061803277
      5480.68       1.7532349    0.0061778084
      5486.16       1.7499122    0.0061750904
      5491.65       1.7412700    0.0061713984
      5497.14       1.7313300    0.0061685319
      5502.64       1.7127564    0.0061662603
      5508.14       1.6926665    0.0061638007
      5513.65       1.6653528    0.0061603798
      5519.16       1.6374750    0.0061577166
      5524.68       1.6089432    0.0060988564
      5530.20       1.5761067    0.0060974199
      5535.73       1.5421039    0.0061504879
      5541.27       1.5034998    0.0061479151
      5546.81       1.4680484    0.0060892785
      5552.36       1.4304281    0.0060877886
      5557.91       1.3892977    0.0060869454
      5563.47       1.3513299    0.0061391238
      5569.04       1.3140936    0.0060804944
      5574.60       1.2773286    0.0060790667
      5580.18       1.2441444    0.0060781426
      5585.76       1.2103439    0.0060776788
      5591.35       1.1773377    0.0060729770
      5596.94       1.1404885    0.0060714014
      5602.53       1.1093027    0.0060702532
      5608.14       1.0790461    0.0060696507
      5613.75       1.0430281    0.0060694302
      5619.36       1.0147146    0.0060133420
      5624.98      0.99048990    0.0060638768
      5630.60      0.97421057    0.0060629359
      5636.23      0.94980873    0.0060624196
      5641.87      0.93186362    0.0060623068
      5647.51      0.92089357    0.0060073240
      5653.16      0.91269417    0.0060061156
      5658.82      0.90546147    0.0060053402
      5664.47      0.89671163    0.0060565769
      5670.14      0.89512779    0.0060564655
      5675.81      0.89538198    0.0060031073
      5681.48      0.89972588    0.0060019974
      5687.17      0.91274079    0.0060012860
      5692.85      0.92921222    0.0060008192
      5698.55      0.94525826    0.0060006529
      5704.25      0.95896459    0.0059470523
      5709.95      0.98014220    0.0060001196
      5715.66       1.0012140    0.0059992724
      5721.38       1.0223252    0.0059987252
      5727.10       1.0561754    0.0059984553
      5732.83       1.0831186    0.0059984585
      5738.56       1.1078456    0.0059449370
      5744.30       1.1341889    0.0059453223
      5750.04       1.1621999    0.0059459317
      5755.79       1.1916117    0.0059467684
      5761.55       1.2185671    0.0059477522
      5767.31       1.2455593    0.0059988945
      5773.08       1.2718670    0.0059991542
      5778.85       1.3070528    0.0059458304
      5784.63       1.3426193    0.0059464882
      5790.41       1.3868842    0.0059472813
      5796.21       1.4332547    0.0059481859
      5802.00       1.4748760    0.0059492945
      5807.81       1.5098393    0.0059507064
      5813.61       1.5423474    0.0059525438
      5819.43       1.5825525    0.0059548801
      5825.25       1.6147412    0.0059045606
      5831.07       1.6490793    0.0059059254
      5836.90       1.6717665    0.0059077682
      5842.74       1.6860167    0.0059107807
      5848.58       1.6940705    0.0059159101
      5854.43       1.7013380    0.0059224849
      5860.29       1.7002312    0.0059292697
      5866.15       1.7002350    0.0059848787
      5872.01       1.7007899    0.0059930438
      5877.89       1.7012005    0.0060014235
      5883.76       1.7008413    0.0059565737
      5889.65       1.7024450    0.0059608283
      5895.54       1.7009554    0.0059641570
      5901.43       1.7052740    0.0059667315
      5907.34       1.7088717    0.0059682842
      5913.24       1.7065952    0.0059689570
      5919.16       1.7058040    0.0059694603
      5925.08       1.7121281    0.0059703882
      5931.00       1.7174020    0.0059716195
      5936.93       1.7178413    0.0059724082
      5942.87       1.7178855    0.0059724278
      5948.81       1.7100860    0.0059717722
      5954.76       1.7056150    0.0059708523
      5960.72       1.6971610    0.0059701239
      5966.68       1.6845210    0.0059690927
      5972.64       1.6710286    0.0059671439
      5978.62       1.6561105    0.0059139881
      5984.60       1.6374978    0.0059135106
      5990.58       1.6152214    0.0059140610
      5996.57       1.5889950    0.0059140072
      6002.57       1.5670500    0.0059136010
      6008.57       1.5453849    0.0058674434
      6014.58       1.5255240    0.0058690412
      6020.60       1.5085288    0.0058710354
      6026.62       1.4926731    0.0058732240
      6032.65       1.4837613    0.0058757961
      6038.68       1.4746013    0.0058787711
      6044.72       1.4637999    0.0058817769
      6050.76       1.4548466    0.0058847710
      6056.81       1.4442049    0.0058879326
      6062.87       1.4392318    0.0058912882
      6068.93       1.4353140    0.0058947393
      6075.00       1.4245385    0.0058982881
      6081.08       1.4129935    0.0059018847
      6087.16       1.4057395    0.0059056099
      6093.25       1.3997198    0.0059094633
      6099.34       1.3923918    0.0059133439
      6105.44       1.3854775    0.0058689391
      6111.54       1.3804307    0.0058725162
      6117.66       1.3790283    0.0058762017
      6123.78       1.3763103    0.0058799131
      6129.90       1.3827022    0.0058837183
      6136.03       1.3968727    0.0059378957
      6142.17       1.4136054    0.0059419324
      6148.31       1.4370027    0.0059460247
      6154.46       1.4648726    0.0059502368
      6160.61       1.4925515    0.0059545073
      6166.77       1.5248709    0.0059128195
      6172.94       1.5722008    0.0059166130
      6179.11       1.6301163    0.0059205342
      6185.29       1.6884055    0.0059245256
      6191.48       1.7494521    0.0059287847
      6197.67       1.8191386    0.0059337211
      6203.87       1.8843382    0.0059404138
      6210.07       1.9423015    0.0059477972
      6216.28       1.9944973    0.0059074518
      6222.50       2.0401341    0.0059129048
      6228.72       2.0772073    0.0059217564
      6234.95       2.1116129    0.0059838812
      6241.19       2.1367117    0.0059988640
      6247.42       2.1617027    0.0060164264
      6253.67       2.1735253    0.0060353786
      6259.93       2.1818327    0.0060094351
      6266.19       2.1840023    0.0060262336
      6272.46       2.1797575    0.0060404306
      6278.73       2.1622841    0.0060510205
      6285.01       2.1466101    0.0060573897
      6291.29       2.1370336    0.0060093033
      6297.58       2.1248047    0.0060555506
      6303.88       2.1072054    0.0060497600
      6310.19       2.0868369    0.0060436448
      6316.50       2.0636102    0.0060394978
      6322.81       2.0371466    0.0060391959
      6329.14       1.9988398    0.0059926371
      6335.47       1.9651448    0.0059913669
      6341.80       1.9319607    0.0060391942
      6348.14       1.8973829    0.0060408994
      6354.49       1.8665339    0.0060431938
      6360.85       1.8355667    0.0059993831
      6367.21       1.8107479    0.0060017342
      6373.57       1.7861500    0.0060048250
      6379.95       1.7642219    0.0060086798
      6386.33       1.7395697    0.0060183620
      6392.72       1.7178167    0.0060225016
      6399.11       1.6928050    0.0060274924
      6405.51       1.6695199    0.0060331172
      6411.92       1.6508641    0.0059952853
      6418.32       1.6324958    0.0060021376
      6424.74       1.6104595    0.0060583412
      6431.17       1.5968034    0.0060667496
      6437.60       1.5830429    0.0060337975
      6444.04       1.5657049    0.0060455587
      6450.48       1.5457524    0.0060566609
      6456.94       1.5312112    0.0061158723
      6463.39       1.5198395    0.0060807950
      6469.85       1.5036862    0.0060901707
      6476.33       1.4921194    0.0060989670
      6482.80       1.4825160    0.0061068330
      6489.28       1.4741545    0.0061145724
      6495.77       1.4764975    0.0061190750
      6502.27       1.4552895    0.0061237439
      6508.77       1.4534794    0.0060825337
      6515.28       1.4272760    0.0061365218
      6521.80       1.4389116    0.0061426036
      6528.32       1.4374471    0.0061493765
      6534.85       1.4417867    0.0061091449
      6541.38       1.4343254    0.0061135965
      6547.92       1.4308083    0.0061671531
      6554.47       1.4308943    0.0061260394
      6561.03       1.4255340    0.0061303431
      6567.59       1.4122593    0.0061356225
      6574.16       1.3984811    0.0061445527
      6580.73       1.3864013    0.0061473897
      6587.31       1.3753137    0.0061518826
      6593.90       1.3609255    0.0061636571
      6600.50       1.3441921    0.0061688662
      6607.10       1.3308990    0.0061748613
      6613.70       1.3175044    0.0061381278
      6620.32       1.2999571    0.0061941468
      6626.94       1.2651269    0.0062005601
      6633.57       1.2569678    0.0061637707
      6640.20       1.2323592    0.0061716649
      6646.84       1.2368493    0.0062266411
      6653.49       1.2148630    0.0061901025
      6660.14       1.2037962    0.0061982436
      6666.80       1.1837897    0.0062537491
      6673.47       1.1685962    0.0062170956
      6680.14       1.1549605    0.0062254593
      6686.82       1.1407643    0.0062368488
      6693.51       1.1252508    0.0062444603
      6700.20       1.1086421    0.0062530371
      6706.90       1.0978373    0.0062644627
      6713.61       1.0888354    0.0062723142
      6720.32       1.0807786    0.0062359469
      6727.05       1.0715383    0.0062923749
      6733.77       1.0701453    0.0063007112
      6740.51       1.0672770    0.0062637526
      6747.25       1.0566147    0.0063207735
      6754.00       1.0492362    0.0062849602
      6760.75       1.0405676    0.0062920177
      6767.51       1.0303192    0.0063497025
      6774.28       1.0245276    0.0063132423
      6781.05       1.0204116    0.0063230498
      6787.84       1.0130515    0.0063544498
      6794.62       1.0045683    0.0063805458
      6801.42      0.99756943    0.0063489388
      6808.22      0.99383097    0.0063993584
      6815.03      0.98912080    0.0064236466
      6821.85      0.98324833    0.0064910002
      6828.67      0.97467249    0.0065574518
      6835.50      0.96850085    0.0066069050
      6842.33      0.96539077    0.0067723033
      6849.17      0.96664211    0.0068360389
      6856.02      0.96941144    0.0069326639
      6862.88      0.97451587    0.0070402042
      6869.74      0.97798380    0.0070952780
      6876.61      0.97912723    0.0071266832
      6883.49      0.98381216    0.0071164300
      6890.37      0.98995732    0.0070147201
      6897.27      0.99744571    0.0070060666
      6904.16       1.0026766    0.0069418940
      6911.07       1.0082216    0.0068631190
      6917.98       1.0151015    0.0068260080
      6924.89       1.0250219    0.0067983936
      6931.82       1.0333566    0.0067650340
      6938.75       1.0439940    0.0066798064
      6945.69       1.0519450    0.0067090111
      6952.64       1.0605629    0.0066504346
      6959.59       1.0666964    0.0066420260
      6966.55       1.0739895    0.0066357401
      6973.52       1.0838077    0.0066386690
      6980.49       1.0891570    0.0066412308
      6987.47       1.0975104    0.0066537687
      6994.46       1.1060474    0.0066606004
      7001.46       1.1137532    0.0066736560
      7008.46       1.1210881    0.0066776858
      7015.46       1.1314622    0.0066853612
      7022.48       1.1380157    0.0066852576
      7029.51       1.1408944    0.0066423781
      7036.53       1.1423853    0.0066930260
      7043.57       1.1489249    0.0066529691
      7050.62       1.1545581    0.0066596061
      7057.66       1.1581100    0.0066645118
      7064.72       1.1624002    0.0066720831
      7071.79       1.1701627    0.0066791882
      7078.86       1.1774607    0.0066898296
      7085.94       1.1874931    0.0067021035
      7093.03       1.1986306    0.0067212926
      7100.12       1.2136631    0.0066916899
      7107.22       1.2332304    0.0067598150
      7114.33       1.2509426    0.0067864807
      7121.44       1.2740359    0.0068127267
      7128.56       1.2999027    0.0068610517
      7135.69       1.3275964    0.0068766528
      7142.83       1.3612611    0.0069980940
      7149.97       1.4000319    0.0070430766
      7157.12       1.4447053    0.0071802942
      7164.28       1.4936331    0.0072053394
      7171.44       1.5489070    0.0072723945
      7178.62       1.6034177    0.0073059675
      7185.80       1.6592242    0.0073380944
      7192.98       1.7122524    0.0073550709
      7200.17       1.7613198    0.0073523695
      7207.38       1.8118905    0.0073480452
      7214.58       1.8579714    0.0073436482
      7221.80       1.8972158    0.0073524451
      7229.02       1.9233758    0.0073193077
      7236.25       1.9461962    0.0073921819
      7243.49       1.9595083    0.0074164250
      7250.73       1.9602719    0.0073745361
      7257.98       1.9491596    0.0074291309
      7265.24       1.9305531    0.0073678711
      7272.51       1.9066742    0.0073465160
      7279.78       1.8842795    0.0073791575
      7287.06       1.8582631    0.0073145430
      7294.35       1.8305994    0.0072943978
      7301.64       1.8046312    0.0072197356
      7308.94       1.7788112    0.0072435718
      7316.25       1.7554653    0.0072155588
      7323.57       1.7337381    0.0071464709
      7330.89       1.7132097    0.0071803815
      7338.22       1.6972305    0.0071666347
      7345.56       1.6828994    0.0071110916
      7352.91       1.6712136    0.0071573104
      7360.26       1.6537151    0.0071089153
      7367.62       1.6359019    0.0071122233
      7374.99       1.6235749    0.0071150230
      7382.37       1.6039873    0.0071133030
      7389.75       1.5801255    0.0071163152
      7397.14       1.5507827    0.0071220989
      7404.53       1.5235451    0.0070800339
      7411.94       1.4949746    0.0071340880
      7419.35       1.4612835    0.0071449112
      7426.77       1.4275648    0.0071064037
      7434.20       1.3921767    0.0071173557
      7441.63       1.3573024    0.0071753754
      7449.07       1.3213678    0.0071398528
      7456.52       1.2876716    0.0071531172
      7463.98       1.2547333    0.0071671612
      7471.45       1.2246273    0.0072276464
      7478.92       1.1976351    0.0071928415
      7486.40       1.1691484    0.0072077467
      7493.88       1.1424744    0.0072243754
      7501.38       1.1174545    0.0072034861
      7508.88       1.0968971    0.0073077768
      7516.39       1.0774832    0.0074145320
      7523.91       1.0577391    0.0074926477
      7531.43       1.0437208    0.0074127868
      7538.96       1.0333058    0.0074622461
      7546.50       1.0261960    0.0076445169
      7554.05       1.0187609    0.0079117065
      7561.60       1.0132962    0.0082228627
      7569.16       1.0124668    0.0087188117
      7576.73       1.0112213    0.0093056270
      7584.31       1.0087094    0.0099208645
      7591.89       1.0095819     0.010420070
      7599.49       1.0133869     0.010973484
      7607.09       1.0195892     0.011322425
      7614.70       1.0220308     0.011373922
      7622.31       1.0244314     0.011065975
      7629.93       1.0300464     0.010633176
      7637.56       1.0415499     0.010197659
      7645.20       1.0540748    0.0096017589
      7652.85       1.0630947    0.0090770573
      7660.50       1.0722152    0.0086841231
      7668.16       1.0914369    0.0083634080
      7675.83       1.1075588    0.0080946988
      7683.50       1.1213988    0.0079166455
      7691.19       1.1365091    0.0078263083
      7698.88       1.1522483    0.0077731557
      7706.58       1.1672324    0.0077106799
      7714.29       1.1793294    0.0076646453
      7722.00       1.1870973    0.0076365600
      7729.73       1.1925194    0.0076237331
      7737.45       1.2000431    0.0075743593
      7745.19       1.2010971    0.0075785411
      7752.94       1.1995578    0.0075880393
      7760.69       1.1984659    0.0076002811
      7768.45       1.2012356    0.0076144008
      7776.22       1.2019802    0.0076303728
      7784.00       1.2003824    0.0076925098
      7791.78       1.1977032    0.0076558109
      7799.57       1.1972153    0.0076721626
      7807.37       1.1991002    0.0076890785
      7815.18       1.2033781    0.0077059984
      7822.99       1.1989215    0.0077234524
      7830.82       1.1907930    0.0077425311
      7838.65       1.1895973    0.0077632484
      7846.49       1.1868555    0.0077848343
      7854.34       1.1757535    0.0077544962
      7862.19       1.1607694    0.0077783863
      7870.05       1.1457791    0.0078027965
      7877.93       1.1326067    0.0078247621
      7885.80       1.1197747    0.0078434120
      7893.69       1.1009040    0.0078606792
      7901.58       1.0814607    0.0078772829
      7909.49       1.0662332    0.0078934990
      7917.40       1.0500130    0.0079093861
      7925.31       1.0353343    0.0079246737
      7933.24       1.0247225    0.0079402214
      7941.17       1.0200192    0.0079035121
      7949.11       1.0144505    0.0079214251
      7957.06       1.0054762    0.0079403126
      7965.02      0.99530361    0.0079587473
      7972.98      0.98260772    0.0079772595
      7980.96      0.97072539    0.0079955061
      7988.94      0.96417257    0.0080124991
      7996.93      0.95345171    0.0080275425
      8004.93      0.93532279    0.0080419296
      8012.93      0.91888304    0.0080572527
      8020.95      0.91046830    0.0080733268
      8028.97      0.90291492    0.0080880257
      8036.99      0.89157815    0.0081028052
      8045.03      0.87648007    0.0080769030
      8053.08      0.85963771    0.0080994685
      8061.13      0.84645861    0.0081275738
      8069.20      0.83331898    0.0081630009
      8077.26      0.81997449    0.0082040645
      8085.34      0.80580387    0.0082542642
      8093.43      0.79373529    0.0083188056
      8101.52      0.78145666    0.0083978870
      8109.62      0.77945486    0.0084871993
      8117.73      0.77350042    0.0085832227
      8125.85      0.76485806    0.0086887889
      8133.98      0.75764090    0.0087989588
      8142.11      0.75722726    0.0088351415
      8150.25      0.74729865    0.0088756285
      8158.41      0.73040241    0.0089030026
      8166.56      0.72242484    0.0089248882
      8174.73      0.72009716    0.0089375507
      8182.91      0.71002838    0.0089437714
      8191.09      0.68958342    0.0089424113
      8199.28      0.66469993    0.0088808703
      8207.48      0.64663355    0.0088696103
      8215.69      0.63241654    0.0089194628
      8223.91      0.61306175    0.0089212358
      8232.13      0.58558023    0.0089199566
      8240.36      0.55965735    0.0089124198
      8248.60      0.54477689    0.0089027892
      8256.85      0.54112217    0.0088371226
      8265.11      0.54331860    0.0088232963
      8273.37      0.53653647    0.0088115914
      8281.65      0.53457085    0.0088150011
      8289.93      0.54496278    0.0088312431
      8298.22      0.56193662    0.0087751567
      8306.52      0.56620399    0.0087943705
      8314.83      0.58142329    0.0087679090
      8323.14      0.61003617    0.0087472141
      8331.46      0.63823083    0.0087290052
      8339.80      0.66801887    0.0086636255
      8348.13      0.69086313    0.0086537595
      8356.48      0.71130403    0.0086419751
      8364.84      0.73145953    0.0086328766
      8373.21      0.74648678    0.0086315508
      8381.58      0.76177919    0.0086328585
      8389.96      0.77880642    0.0086358941
      8398.35      0.80526056    0.0086388768
      8406.75      0.84193009    0.0086440331
      8415.16      0.88004506    0.0086023902
      8423.57      0.91297506    0.0086648751
      8432.00      0.94859792    0.0086747881
      8440.43      0.99508248    0.0086861950
      8448.87       1.0551299    0.0086507894
      8457.32       1.1160405    0.0086644011
      8465.78       1.1740282    0.0087323884
      8474.25       1.2400450    0.0086990702
      8482.72       1.3222483    0.0087145646
      8491.20       1.4111179    0.0087302332
      8499.69       1.5163631    0.0087464260
      8508.19       1.6273027    0.0087648634
      8516.70       1.7426900    0.0087782827
      8525.22       1.8677868    0.0087916181
      8533.75       2.0037387    0.0087540551
      8542.28       2.1325978    0.0087657537
      8550.82       2.2674519    0.0088326171
      8559.37       2.4004821    0.0087963460
      8567.93       2.5271829    0.0088085854
      8576.50       2.6428561    0.0088207326
      8585.08       2.7523580    0.0088391155
      8593.66       2.8455341    0.0088516579
      8602.26       2.9152735    0.0088660157
      8610.86       2.9469228    0.0088335064
      8619.47       2.9508609    0.0089022400
      8628.09       2.9347519    0.0089168844
      8636.72       2.9034908    0.0088838600
      8645.36       2.8765355    0.0089529407
      8654.00       2.8499931    0.0089180905
      8662.66       2.8179230    0.0089321798
      8671.32       2.7795756    0.0089465889
      8679.99       2.7390201    0.0089635169
      8688.67       2.7055407    0.0089765075
      8697.36       2.6665256    0.0089903018
      8706.06       2.6378448    0.0090069677
      8714.76       2.6069635    0.0090207700
      8723.48       2.5732064    0.0089853859
      8732.21       2.5437087    0.0090542070
      8740.93       2.5139147    0.0090689247
      8749.68       2.4766551    0.0090335428
      8758.43       2.4353187    0.0091038926
      8767.19       2.3835746    0.0090697315
      8775.96       2.3156039    0.0090841285
      8784.73       2.2353458    0.0091057402
      8793.52       2.1514601    0.0091195814
      8802.31       2.0670821    0.0090862301
      8811.11       1.9824427    0.0091557634
      8819.92       1.8928227    0.0091709871
      8828.75       1.7959055    0.0091401912
      8837.57       1.7054974    0.0092105610
      8846.41       1.6267148    0.0091826566
      8855.26       1.5477349    0.0092597382
      8864.12       1.4644442    0.0092405649
      8872.98       1.3852398    0.0092688244
      8881.85       1.2894366    0.0093149752
      8890.73       1.2014767    0.0093661508
      8899.63       1.1244437    0.0094394638
      8908.52       1.0654137    0.0095152152
      8917.43       1.0143048    0.0095751436
      8926.35      0.98433523    0.0097560085
      8935.28      0.96270665    0.0098490277
      8944.22      0.93196244     0.010056358
      8953.16      0.89909983     0.010157622
      8962.11      0.87171399     0.010354216
      8971.08      0.85800360     0.010399411
      8980.05      0.85050847     0.010449704
      8989.03      0.85235159     0.010460108
      8998.02      0.85346268     0.010379005
      9007.02      0.86092430     0.010392061
      9016.02      0.86506735     0.010302688
      9025.04      0.86244348     0.010341574
      9034.07      0.86066318     0.010296812
      9043.10      0.85559400     0.010368396
      9052.14      0.85102870     0.010361731
      9061.20      0.84909245     0.010491363
      9070.26      0.84817444     0.010498863
      9079.33      0.85231656     0.010572123
      9088.41      0.86009685     0.010617690
      9097.50      0.87249647     0.010654179
      9106.60      0.87875916     0.010669846
      9115.70      0.88209919     0.010682636
      9124.82      0.87902364     0.010624148
      9133.94      0.87666661     0.010683966
      9143.08      0.88287576     0.010603951
      9152.22      0.89631774     0.010555305
      9161.37      0.90519485     0.010497651
      9170.54      0.91345943     0.010433244
      9179.71      0.92120418     0.010385713
      9188.89      0.92824240     0.010337794
      9198.08      0.92619731     0.010323550
      9207.28      0.92093485     0.010332796
      9216.48      0.90862032     0.010375985
      9225.70      0.89811298     0.010413495
      9234.92      0.88863323     0.010584366
      9244.16      0.87710979     0.010716350
      9253.40      0.86714477     0.011004437
      9262.66      0.85351364     0.011430074
      9271.92      0.84106906     0.011839267
      9281.20      0.82553872     0.012485623
      9290.48      0.80289797     0.013082860
      9299.77      0.77348117     0.013885884
      9309.07      0.76064954     0.014689147
      9318.38      0.75531558     0.015214641
      9327.69      0.75852091     0.015779925
      9337.02      0.75485818     0.015874365
      9346.36      0.75470063     0.015842387
      9355.71      0.76234207     0.015763969
      9365.07      0.75922608     0.015323764
      9374.43      0.74984216     0.014973527
      9383.80      0.73841006     0.014712553
      9393.19      0.72879282     0.014595840
      9402.58      0.72545053     0.014539839
      9411.98      0.71876351     0.014628593
      9421.40      0.71931065     0.014638564
      9430.82      0.70973326     0.014804341
      9440.25      0.69833211     0.014901254
      9449.69      0.69445557     0.014838171
      9459.14      0.68887506     0.014731302
      9468.60      0.66892993     0.014555897
      9478.07      0.65893705     0.014460509
      9487.55      0.65593879     0.014356636
      9497.04      0.64618858     0.014230407
      9506.53      0.64627850     0.014056781
      9516.04      0.63483321     0.013955828
      9525.56      0.63116381     0.013913332
      9535.08      0.63029429     0.013789270
      9544.62      0.62104517     0.013582565
      9554.16      0.61080704     0.013428780
      9563.72      0.60746065     0.013258013
      9573.29      0.59977419     0.013162482
      9582.85      0.59424770     0.012909695
      9592.44      0.58579006     0.012727403
      9602.03      0.58754926     0.012538523
      9611.63      0.58038265     0.012318207
      9621.25      0.58204487     0.012065730
      9630.87      0.58985372     0.011852294
      9640.50      0.59442449     0.011699844
      9650.14      0.60103719     0.011473089
      9659.79      0.60696095     0.011247616
      9669.45      0.61068131     0.011098449
      9679.12      0.61360460     0.010981067
      9688.80      0.61768104     0.010906318
      9698.49      0.62179470     0.010869717
      9708.19      0.62571786     0.010810055
      9717.90      0.63211610     0.010824423
      9727.62      0.63223092     0.010839043
      9737.34      0.63507233     0.010897079
      9747.08      0.64430369     0.010875709
      9756.83      0.64505382     0.010830588
      9766.59      0.64042998     0.010725008
      9776.35      0.63923532     0.010663732
      9786.13      0.64292266     0.010596752
      9795.92      0.64702846     0.010531214
      9805.71      0.65253976     0.010472917
      9815.52      0.65345589     0.010421165
      9825.34      0.65385142     0.010371558
      9835.17      0.64389732     0.010277453
      9845.00      0.63179162     0.010233620
      9854.84      0.62449371     0.010200531
      9864.70      0.62010736     0.010181488
      9874.56      0.61439683     0.010165456
      9884.44      0.60609813     0.010149020
      9894.32      0.59795027     0.010139275
      9904.22      0.59325849     0.010136790
      9914.13      0.58874634     0.010135752
      9924.04      0.59236983     0.010084463
      9933.96      0.59564803     0.010085159
      9943.90      0.59432110     0.010087578
      9953.84      0.59617734     0.010092897
      9963.79      0.60931952     0.010098883
      9973.76      0.62450360     0.010107089
      9983.74      0.63372336     0.010116908
      9993.72             NaN             NaN
