# starting wavelength =        3225.0200
# ending wavelength =        10983.000
# O2 telluric scale =        0
# O2 telluric shift =        0
# H2O telluric scale =        0
# H2O telluric shift =        0
      3226.73      0.18805516     0.029786808
      3229.96      0.17436349     0.024262009
      3233.19      0.16144378     0.020836758
      3236.42      0.15575366     0.018956830
      3239.66      0.14964583     0.016731856
      3242.90      0.14304897     0.015009695
      3246.14      0.13832680     0.013278649
      3249.39      0.13394786     0.012311668
      3252.64      0.13261193     0.011766626
      3255.89      0.13461075     0.011120392
      3259.14      0.12840871     0.010598249
      3262.40      0.12621564     0.010110667
      3265.67      0.12563092    0.0097832957
      3268.93      0.12324202    0.0096007038
      3272.20      0.12240621    0.0093482075
      3275.47      0.12314184    0.0091267658
      3278.75      0.12160630    0.0089749320
      3282.03      0.12012036    0.0088045107
      3285.31      0.11692824    0.0087190040
      3288.60      0.12563295    0.0086402701
      3291.88      0.12569144    0.0085641401
      3295.18      0.12798429    0.0086250761
      3298.47      0.13347775    0.0086151194
      3301.77      0.13005672    0.0086761220
      3305.07      0.13240009    0.0085996915
      3308.38      0.13750688    0.0085898496
      3311.69      0.14074990    0.0086508230
      3315.00      0.14012343    0.0085742861
      3318.31      0.14638156    0.0086338429
      3321.63      0.14734154    0.0086254771
      3324.95      0.15228245    0.0085490306
      3328.28      0.15300618    0.0086083492
      3331.61      0.15416014    0.0086000620
      3334.94      0.14884931    0.0085928935
      3338.27      0.14771102    0.0085828843
      3341.61      0.15573893    0.0085743821
      3344.95      0.16456243    0.0086368771
      3348.30      0.16433947    0.0085573592
      3351.65      0.17046397    0.0085488571
      3355.00      0.17331242    0.0086111596
      3358.35      0.17316544    0.0086012594
      3361.71      0.18513751    0.0085230213
      3365.07      0.19087163    0.0085856144
      3368.44      0.19564115    0.0085754117
      3371.81      0.20404516    0.0084973595
      3375.18      0.21003185    0.0085600328
      3378.56      0.21422445    0.0085496869
      3381.94      0.21975778    0.0085404465
      3385.32      0.22276782    0.0085346795
      3388.70      0.22711360    0.0085238709
      3392.09      0.22890315    0.0085852499
      3395.48      0.23387288    0.0085767800
      3398.88      0.23419248    0.0084982537
      3402.28      0.23639466    0.0085590913
      3405.68      0.23559395    0.0085502049
      3409.09      0.23872104    0.0085424520
      3412.49      0.23693852    0.0085330153
      3415.91      0.24116461    0.0085236122
      3419.32      0.24295987    0.0085153208
      3422.74      0.24400918    0.0085786708
      3426.17      0.24708249    0.0084972549
      3429.59      0.24726798    0.0084884591
      3433.02      0.24261137    0.0085529370
      3436.45      0.24060389    0.0085424214
      3439.89      0.24068764    0.0084616693
      3443.33      0.24008385    0.0085274442
      3446.78      0.23614050    0.0085163847
      3450.22      0.23856386    0.0085062899
      3453.67      0.24477559    0.0085703341
      3457.13      0.24633473    0.0084906684
      3460.58      0.24595552    0.0084799080
      3464.04      0.24797556    0.0084701372
      3467.51      0.25292055    0.0085340489
      3470.98      0.24895439    0.0084541624
      3474.45      0.25698046    0.0084435373
      3477.92      0.26168246    0.0085066148
      3481.40      0.26231385    0.0084977184
      3484.88      0.26104484    0.0084898886
      3488.37      0.26314146    0.0084795879
      3491.86      0.26422306    0.0084700513
      3495.35      0.26216740    0.0084613264
      3498.84      0.26247342    0.0085273679
      3502.34      0.26047664    0.0085168259
      3505.84      0.25820540    0.0084334700
      3509.35      0.25973487    0.0084246331
      3512.86      0.25620668    0.0084904660
      3516.37      0.24937420    0.0084799116
      3519.89      0.24597973    0.0084700766
      3523.41      0.24382827    0.0084653613
      3526.93      0.24295422    0.0084538382
      3530.46      0.24650922    0.0084430653
      3533.99      0.25006265    0.0084329696
      3537.53      0.25006663    0.0084986599
      3541.06      0.25211087    0.0084901011
      3544.60      0.25541071    0.0084061446
      3548.15      0.25727558    0.0084705470
      3551.70      0.25838959    0.0084609765
      3555.25      0.26069097    0.0084519160
      3558.80      0.26640565    0.0084437846
      3562.36      0.26878191    0.0085096532
      3565.92      0.27312239    0.0084232404
      3569.49      0.27172553    0.0084137993
      3573.06      0.27439020    0.0084050748
      3576.64      0.27410768    0.0084723839
      3580.21      0.27220823    0.0084617403
      3583.79      0.27775604    0.0084518661
      3587.38      0.27892865    0.0084472191
      3590.96      0.27932858    0.0084354330
      3594.55      0.27556870    0.0084242134
      3598.15      0.27906964    0.0084137964
      3601.75      0.28074399    0.0084811955
      3605.35      0.28131388    0.0084718563
      3608.96      0.28260530    0.0084630401
      3612.56      0.28204365    0.0083764162
      3616.18      0.28101475    0.0084427483
      3619.79      0.27845058    0.0084326389
      3623.41      0.27181802    0.0084231478
      3627.04      0.26902177    0.0084140703
      3630.66      0.27103196    0.0084845516
      3634.29      0.27751391    0.0084736684
      3637.93      0.28170500    0.0084631328
      3641.57      0.28321422    0.0083742000
      3645.21      0.28562040    0.0083648194
      3648.86      0.28813988    0.0084361161
      3652.50      0.29227148    0.0084249472
      3656.16      0.29080636    0.0084141863
      3659.81      0.28924868    0.0084039637
      3663.47      0.29121915    0.0084740617
      3667.14      0.28753453    0.0084646515
      3670.80      0.28303642    0.0084556215
      3674.48      0.27672436    0.0083655189
      3678.15      0.27260404    0.0084344856
      3681.83      0.26705025    0.0084240085
      3685.51      0.26266307    0.0084141370
      3689.20      0.25960274    0.0084043149
      3692.88      0.25069443    0.0083951127
      3696.58      0.24532952    0.0084679456
      3700.27      0.24409777    0.0084568084
      3703.98      0.23585178    0.0084461421
      3707.68      0.22946496    0.0084357462
      3711.39      0.21704100    0.0084258453
      3715.10      0.20959346    0.0084200614
      3718.81      0.20237704    0.0084082871
      3722.53      0.19372954    0.0083967630
      3726.26      0.18931796    0.0083856643
      3729.98      0.18555149    0.0083749711
      3733.71      0.18378300    0.0084473203
      3737.45      0.17930119    0.0084371042
      3741.18      0.17846417    0.0084270840
      3744.93      0.17759816    0.0084172736
      3748.67      0.17512435    0.0084078327
      3752.42      0.17517085    0.0084831307
      3756.17      0.17329914    0.0084718418
      3759.93      0.17231101    0.0084611009
      3763.69      0.17028956    0.0084503838
      3767.45      0.17159519    0.0084399341
      3771.22      0.17454859    0.0085164755
      3774.99      0.17785190    0.0085063430
      3778.77      0.18355825    0.0084117401
      3782.54      0.18819948    0.0084000527
      3786.33      0.19719329    0.0083888824
      3790.11      0.20698064    0.0083776774
      3793.90      0.21885647    0.0084527570
      3797.70      0.22788767    0.0084418821
      3801.50      0.23719596    0.0084311407
      3805.30      0.24593447    0.0084207262
      3809.10      0.25828626    0.0084103761
      3812.91      0.27066511    0.0084003456
      3816.73      0.28319902    0.0084819635
      3820.54      0.29653537    0.0084702533
      3824.36      0.30934669    0.0084587703
      3828.19      0.32678595    0.0084473397
      3832.02      0.34415470    0.0084360250
      3835.85      0.36554253    0.0084249841
      3839.68      0.38543412    0.0084139938
      3843.52      0.40538238    0.0084930080
      3847.37      0.42623002    0.0084822064
      3851.22      0.44387308    0.0084714193
      3855.07      0.46348819    0.0084607879
      3858.92      0.48181544    0.0084502100
      3862.78      0.50034147    0.0084396451
      3866.64      0.51756766    0.0084294925
      3870.51      0.53613372    0.0085135968
      3874.38      0.55367108    0.0085020072
      3878.26      0.57397939    0.0084904010
      3882.13      0.59073083    0.0084787440
      3886.02      0.60456312    0.0084673357
      3889.90      0.61632293    0.0084559195
      3893.79      0.63153139    0.0084447438
      3897.69      0.64509796    0.0085273694
      3901.59      0.65472468    0.0085160179
      3905.49      0.66409309    0.0085048817
      3909.39      0.67908346    0.0084936399
      3913.30      0.69174171    0.0084823480
      3917.22      0.70889751    0.0084712973
      3921.13      0.72394124    0.0084601700
      3925.06      0.73876162    0.0084491253
      3928.98      0.75163052    0.0085373362
      3932.91      0.76336410    0.0086255574
      3936.84      0.77545384    0.0086141688
      3940.78      0.78930643    0.0086030342
      3944.72      0.80396304    0.0085915189
      3948.67      0.82042264    0.0085803685
      3952.61      0.83610996    0.0085690618
      3956.57      0.85402586    0.0085575986
      3960.52      0.87159248    0.0085464646
      3964.48      0.88409942    0.0085351787
      3968.45      0.89426081    0.0086297319
      3972.42      0.90373042    0.0086175568
      3976.39      0.91008752    0.0086056250
      3980.37      0.91234320    0.0085938267
      3984.35      0.91547625    0.0085819353
      3988.33      0.92072960    0.0085702337
      3992.32      0.92411725    0.0086644263
      3996.31      0.92347097    0.0086524414
      4000.31      0.90922836    0.0086403515
      4004.31      0.90267457    0.0086284086
      4008.31      0.89375488    0.0086165379
      4012.32      0.88190211    0.0086045411
      4016.33      0.87185072    0.0085926883
      4020.35      0.85867482    0.0085806156
      4024.37      0.84640371    0.0085683798
      4028.40      0.82921835    0.0085562627
      4032.42      0.81465846    0.0085439981
      4036.46      0.79815658    0.0085318198
      4040.50      0.77888094    0.0085197354
      4044.54      0.75887245    0.0085075372
      4048.58      0.74433146    0.0084954710
      4052.63      0.72954895    0.0084830821
      4056.68      0.71726492    0.0084708340
      4060.74      0.70635180    0.0084586799
      4064.80      0.69709015    0.0084464364
      4068.86      0.68786547    0.0084342913
      4072.93      0.67160245    0.0083208903
      4077.01      0.65528094    0.0083089228
      4081.08      0.64551888    0.0082968950
      4085.17      0.63514859    0.0082849931
      4089.25      0.62218018    0.0082732805
      4093.34      0.61008540    0.0082614417
      4097.43      0.59562582    0.0082497984
      4101.53      0.58512456    0.0082381583
      4105.63      0.57445642    0.0082265361
      4109.74      0.56748471    0.0082151306
      4113.85      0.55900520    0.0082036524
      4117.96      0.55101707    0.0081924184
      4122.08      0.54856308    0.0081813911
      4126.20      0.54422930    0.0081703617
      4130.33      0.54103502    0.0080576765
      4134.46      0.53820569    0.0080453216
      4138.59      0.53573558    0.0080329349
      4142.73      0.53311140    0.0080209880
      4146.88      0.53221643    0.0080089988
      4151.02      0.52365294    0.0079970706
      4155.18      0.52382465    0.0079855056
      4159.33      0.52166329    0.0080723948
      4163.49      0.51950429    0.0080608407
      4167.65      0.51716436    0.0080495880
      4171.82      0.51865341    0.0079436701
      4175.99      0.52144504    0.0079305705
      4180.17      0.52752980    0.0079178712
      4184.35      0.53226885    0.0079050401
      4188.54      0.53712547    0.0078927501
      4192.72      0.54150595    0.0078805293
      4196.92      0.54597674    0.0078684255
      4201.11      0.55096487    0.0078568981
      4205.31      0.55147784    0.0078454507
      4209.52      0.55531342    0.0077439657
      4213.73      0.55901826    0.0078267555
      4217.94      0.56221680    0.0078134507
      4222.16      0.56265168    0.0078002789
      4226.38      0.56635171    0.0077877532
      4230.61      0.56549479    0.0077754112
      4234.84      0.57011312    0.0077633442
      4239.08      0.57129490    0.0076622612
      4243.32      0.57238897    0.0076509514
      4247.56      0.57383181    0.0076400611
      4251.81      0.57906044    0.0076296248
      4256.06      0.58212126    0.0077072588
      4260.32      0.58429504    0.0076943742
      4264.58      0.58556418    0.0076818170
      4268.84      0.58564280    0.0075812981
      4273.11      0.58712585    0.0075698152
      4277.38      0.58628276    0.0075588426
      4281.66      0.58454666    0.0075482093
      4285.94      0.58446427    0.0075381150
      4290.23      0.58566075    0.0075284388
      4294.52      0.58719166    0.0075122614
      4298.81      0.58618849    0.0075003468
      4303.11      0.58511806    0.0074890269
      4307.42      0.58447533    0.0074781077
      4311.72      0.58047456    0.0074678133
      4316.04      0.57773475    0.0074580175
      4320.35      0.57556847    0.0073567763
      4324.67      0.56924600    0.0074310650
      4329.00      0.56279497    0.0074196155
      4333.33      0.55917553    0.0074086468
      4337.66      0.55137277    0.0073983796
      4342.00      0.54394002    0.0073006704
      4346.34      0.53532726    0.0072882221
      4350.69      0.52913098    0.0072762927
      4355.04      0.52295872    0.0073504427
      4359.39      0.51729028    0.0073397077
      4363.75      0.51564125    0.0072444946
      4368.12      0.51878460    0.0072316746
      4372.48      0.52178340    0.0072194924
      4376.86      0.52572663    0.0072079284
      4381.23      0.52737894    0.0072817139
      4385.61      0.53148038    0.0071881095
      4390.00      0.53683384    0.0071748881
      4394.39      0.54203988    0.0071625902
      4398.79      0.54765118    0.0071510281
      4403.18      0.55476975    0.0070614386
      4407.59      0.56283583    0.0071311142
      4412.00      0.57090772    0.0071179260
      4416.41      0.58095672    0.0071055578
      4420.82      0.58938176    0.0070941993
      4425.25      0.60212410    0.0070054626
      4429.67      0.61555216    0.0070737150
      4434.10      0.63288921    0.0070606790
      4438.54      0.65322984    0.0070486530
      4442.97      0.67606401    0.0069598980
      4447.42      0.70183669    0.0069499021
      4451.86      0.73198804    0.0070159388
      4456.32      0.75974819    0.0070035073
      4460.77      0.78781917    0.0069148621
      4465.24      0.81991141    0.0069045068
      4469.70      0.84987718    0.0068952951
      4474.17      0.88156243    0.0069583423
      4478.65      0.91159646    0.0068698824
      4483.12      0.94346588    0.0068595648
      4487.61      0.97215637    0.0068502483
      4492.09       1.0004367    0.0068366512
      4496.59       1.0275024    0.0068251140
      4501.08       1.0556452    0.0068148154
      4505.58       1.0856364    0.0068054504
      4510.09       1.1181535    0.0067168304
      4514.60       1.1492981    0.0067805958
      4519.12       1.1839120    0.0067703580
      4523.63       1.2198829    0.0067612511
      4528.16       1.2567142    0.0066726302
      4532.69       1.2940124    0.0067360449
      4537.22       1.3314327    0.0067259952
      4541.76       1.3690042    0.0066402493
      4546.30       1.4014025    0.0066284280
      4550.85       1.4357984    0.0066917482
      4555.40       1.4661888    0.0066084467
      4559.95       1.4955842    0.0065958178
      4564.51       1.5224486    0.0065844604
      4569.08       1.5464277    0.0066479546
      4573.65       1.5646882    0.0065636329
      4578.22       1.5780275    0.0065516556
      4582.80       1.5908803    0.0065410876
      4587.38       1.5972721    0.0065316077
      4591.97       1.6015363    0.0065190635
      4596.56       1.5997688    0.0065079356
      4601.16       1.5935489    0.0064995517
      4605.76       1.5877133    0.0064865531
      4610.37       1.5765029    0.0064750738
      4614.98       1.5648027    0.0063965813
      4619.59       1.5484652    0.0064542488
      4624.21       1.5300576    0.0064424140
      4628.84       1.5069214    0.0063638131
      4633.47       1.4798992    0.0064218012
      4638.10       1.4548227    0.0064098209
      4642.74       1.4271903    0.0063314678
      4647.38       1.3990247    0.0063895488
      4652.03       1.3703576    0.0063772484
      4656.68       1.3440165    0.0062991544
      4661.34       1.3170728    0.0062904658
      4666.00       1.2860057    0.0063447859
      4670.67       1.2596846    0.0062670867
      4675.33       1.2309679    0.0062585025
      4680.01       1.2051226    0.0062452332
      4684.69       1.1790727    0.0062350407
      4689.38       1.1562352    0.0062267376
      4694.07       1.1303328    0.0062132816
      4698.76       1.1053633    0.0062033960
      4703.46       1.0838459    0.0061952690
      4708.16       1.0586164    0.0061813047
      4712.87       1.0358673    0.0061717175
      4717.58       1.0156838    0.0060955700
      4722.30      0.99198959    0.0061495825
      4727.03      0.96911729    0.0061405146
      4731.75      0.94689418    0.0060638301
      4736.48      0.92617286    0.0061180041
      4741.22      0.91082866    0.0060438535
      4745.96      0.89918938    0.0060322602
      4750.71      0.88679801    0.0060868433
      4755.46      0.88006427    0.0060119377
      4760.22      0.87409224    0.0060009297
      4764.97      0.87211895    0.0059923595
      4769.74      0.87385320    0.0059802902
      4774.51      0.87622979    0.0060338660
      4779.29      0.88148754    0.0059601901
      4784.07      0.88516888    0.0059490682
      4788.85      0.89415694    0.0059408922
      4793.64      0.90377193    0.0059284926
      4798.43      0.91340351    0.0059184306
      4803.23      0.92343379    0.0059086531
      4808.03      0.93035931    0.0058974144
      4812.84      0.93080081    0.0058891057
      4817.66      0.93358753    0.0058768251
      4822.48      0.93729971    0.0058071248
      4827.30      0.93639495    0.0058569692
      4832.12      0.93786297    0.0058460191
      4836.96      0.93932766    0.0057780655
      4841.79      0.94276956    0.0058255141
      4846.63      0.94670666    0.0057568557
      4851.48      0.95085123    0.0058053358
      4856.33      0.96443415    0.0057361496
      4861.19      0.98033148    0.0057855639
      4866.05       1.0026199    0.0057156738
      4870.92       1.0259751    0.0057073298
      4875.79       1.0564842    0.0056954445
      4880.66       1.0890317    0.0056867066
      4885.55       1.1305374    0.0056756787
      4890.43       1.1651092    0.0056660390
      4895.32       1.2003928    0.0056591552
      4900.22       1.2367299    0.0056458051
      4905.12       1.2653650    0.0056384054
      4910.02       1.2918082    0.0056257596
      4914.94       1.3080971    0.0056178636
      4919.85       1.3158868    0.0056058161
      4924.77       1.3188106    0.0055974746
      4929.70       1.3142518    0.0055294474
      4934.62       1.3085353    0.0055773184
      4939.56       1.2940182    0.0055099833
      4944.50       1.2727331    0.0055573440
      4949.44       1.2475983    0.0054904751
      4954.39       1.2150654    0.0055373550
      4959.35       1.1781964    0.0054711992
      4964.31       1.1400425    0.0055177571
      4969.27       1.1031581    0.0054519056
      4974.24       1.0690859    0.0054980364
      4979.22       1.0362825    0.0054326209
      4984.20       1.0085470    0.0054232506
      4989.18      0.98240081    0.0054134823
      4994.17      0.95917901    0.0054040402
      4999.16      0.93924039    0.0053942446
      5004.16      0.92414760    0.0053318969
      5009.17      0.91372421    0.0053751078
      5014.18      0.91095179    0.0053130976
      5019.19      0.90980879    0.0053561060
      5024.21      0.91377425    0.0052943413
      5029.23      0.92717957    0.0053369723
      5034.26      0.93505378    0.0052756769
      5039.30      0.94114909    0.0053179751
      5044.34      0.94875819    0.0052572865
      5049.39      0.95710435    0.0052991099
      5054.43      0.96527441    0.0052387710
      5059.49      0.97509722    0.0052801907
      5064.55      0.98507731    0.0052206046
      5069.61      0.99459461    0.0052099612
      5074.68       1.0026746    0.0052025472
      5079.76       1.0108623    0.0051914750
      5084.84       1.0177806    0.0051846842
      5089.92       1.0270945    0.0051733260
      5095.01       1.0375574    0.0051671060
      5100.11       1.0456558    0.0051553153
      5105.21       1.0499318    0.0050957228
      5110.31       1.0582715    0.0051375030
      5115.42       1.0618451    0.0051274159
      5120.54       1.0672758    0.0051199959
      5125.66       1.0708359    0.0051093890
      5130.79       1.0741624    0.0050512084
      5135.92       1.0786296    0.0050915783
      5141.05       1.0896298    0.0050330435
      5146.20       1.0994054    0.0050741419
      5151.34       1.1124507    0.0050152122
      5156.49       1.1271330    0.0050072787
      5161.65       1.1441629    0.0049976118
      5166.81       1.1634582    0.0049890106
      5171.98       1.1852940    0.0050292038
      5177.15       1.2103732    0.0049711673
      5182.33       1.2395192    0.0049636021
      5187.51       1.2706633    0.0049536806
      5192.70       1.3011821    0.0049453641
      5197.89       1.3280490    0.0049366421
      5203.09       1.3570626    0.0049276732
      5208.29       1.3879661    0.0049201900
      5213.50       1.4124963    0.0049104055
      5218.72       1.4369274    0.0049021158
      5223.93       1.4607326    0.0048474608
      5229.16       1.4868769    0.0048846975
      5234.39       1.5150030    0.0048770341
      5239.62       1.5399006    0.0048217415
      5244.86       1.5609648    0.0048592497
      5250.11       1.5833634    0.0048056872
      5255.36       1.6052327    0.0047964464
      5260.61       1.6262650    0.0048342582
      5265.87       1.6481656    0.0047803233
      5271.14       1.6681839    0.0047714685
      5276.41       1.6876462    0.0047649541
      5281.69       1.7110906    0.0047552964
      5286.97       1.7295248    0.0047468007
      5292.26       1.7441178    0.0047399527
      5297.55       1.7548357    0.0047305626
      5302.85       1.7636480    0.0047706216
      5308.15       1.7698364    0.0049368594
      5313.46       1.7601269    0.0048998045
      5318.77       1.7554733    0.0047018945
      5324.09       1.7578455    0.0047513176
      5329.42       1.7611480    0.0048441936
      5334.75       1.7671072    0.0049421711
      5340.08       1.7672129    0.0051265091
      5345.42       1.7673400    0.0053679013
      5350.77       1.7698077    0.0057745555
      5356.12       1.7751431    0.0061841311
      5361.48       1.7795488    0.0066689294
      5366.83       1.7886880    0.0069651010
      5372.20       1.7982931    0.0075248176
      5377.58       1.8157189    0.0065032224
      5382.95       1.8289107    0.0060783718
      5388.34       1.8406470    0.0060894057
      5393.72       1.8569347    0.0060812359
      5399.12       1.8724324    0.0060306110
      5404.52       1.8867190    0.0061421886
      5409.92       1.9009532    0.0062075993
      5415.33       1.9267929    0.0060475459
      5420.75       1.9590750    0.0060430099
      5426.17       1.9998246    0.0061933907
      5431.60       2.0362107    0.0061896801
      5437.03       2.0691338    0.0061865142
      5442.47       2.1025834    0.0060513201
      5447.91       2.1213521    0.0060430082
      5453.36       2.1338927    0.0060352645
      5458.81       2.1391773    0.0060280386
      5464.27       2.1340812    0.0060213735
      5469.73       2.1178269    0.0060152950
      5475.20       2.0937060    0.0060097730
      5480.68       2.0629187    0.0060048528
      5486.16       2.0220518    0.0060005431
      5491.65       1.9776227    0.0059968606
      5497.14       1.9158345    0.0060198936
      5502.64       1.8626384    0.0060104775
      5508.14       1.8068368    0.0060017570
      5513.65       1.7487770    0.0059937540
      5519.16       1.6964140    0.0059864397
      5524.68       1.6469001    0.0059798493
      5530.20       1.6027101    0.0061447625
      5535.73       1.5612478    0.0062900454
      5541.27       1.4959617    0.0058689107
      5546.81       1.4725574    0.0059231849
      5552.36       1.4586783    0.0061839325
      5557.91       1.4648549    0.0062408767
      5563.47       1.4763876    0.0088354987
      5569.04       1.5032229    0.0080837095
      5574.60       1.5376645    0.0073716328
      5580.18       1.5748700    0.0067093084
      5585.76       1.6074478    0.0061123951
      5591.35       1.6268616    0.0054824316
      5596.94       1.6429052    0.0050862348
      5602.53       1.6492226    0.0047699143
      5608.14       1.6533176    0.0047285255
      5613.75       1.6480369    0.0045163890
      5619.36       1.6354822    0.0043792587
      5624.98       1.6155057    0.0043050833
      5630.60       1.5787445    0.0043128985
      5636.23       1.5295281    0.0043855317
      5641.87       1.4996197    0.0042398091
      5647.51       1.4651599    0.0041137198
      5653.16       1.4285211    0.0041072852
      5658.82       1.3908216    0.0041011440
      5664.47       1.3549132    0.0041314225
      5670.14       1.3215999    0.0041256802
      5675.81       1.2916687    0.0040846457
      5681.48       1.2654029    0.0040782669
      5687.17       1.2436180    0.0040721570
      5692.85       1.2259438    0.0040662131
      5698.55       1.2141397    0.0040604707
      5704.25       1.2097716    0.0040195417
      5709.95       1.2108247    0.0040507221
      5715.66       1.2218900    0.0040445160
      5721.38       1.2389143    0.0040385139
      5727.10       1.2635054    0.0040326985
      5732.83       1.2920577    0.0040270665
      5738.56       1.3262911    0.0039864730
      5744.30       1.3664165    0.0039811478
      5750.04       1.4080722    0.0039759734
      5755.79       1.4504737    0.0039709511
      5761.55       1.4977281    0.0039660242
      5767.31       1.5435010    0.0039954469
      5773.08       1.5969932    0.0039899935
      5778.85       1.6492400    0.0039498822
      5784.63       1.6991697    0.0039447495
      5790.41       1.7494269    0.0039397081
      5796.21       1.7965904    0.0039347468
      5802.00       1.8350168    0.0039299208
      5807.81       1.8690130    0.0039253020
      5813.61       1.8995145    0.0039209720
      5819.43       1.9244665    0.0039169775
      5825.25       1.9438062    0.0038793118
      5831.07       1.9644007    0.0038747251
      5836.90       1.9761332    0.0038704562
      5842.74       1.9819725    0.0038669623
      5848.58       1.9735311    0.0038648699
      5854.43       1.9512679    0.0038637222
      5860.29       1.9304413    0.0038626874
      5866.15       1.9153333    0.0038943178
      5872.01       1.8987507    0.0038941148
      5877.89       1.8870722    0.0038940477
      5883.76       1.8846433    0.0038603766
      5889.65       1.8830124    0.0038576364
      5895.54       1.8839686    0.0038543132
      5901.43       1.8913580    0.0038505127
      5907.34       1.9006795    0.0038460815
      5913.24       1.9094365    0.0038410975
      5919.16       1.9235007    0.0038359999
      5925.08       1.9382231    0.0038312100
      5931.00       1.9488040    0.0038266019
      5936.93       1.9586856    0.0038217224
      5942.87       1.9674062    0.0038163735
      5948.81       1.9627162    0.0038106126
      5954.76       1.9515114    0.0038047029
      5960.72       1.9299955    0.0037989263
      5966.68       1.9050700    0.0037929776
      5972.64       1.8824005    0.0037864803
      5978.62       1.8594685    0.0037484186
      5984.60       1.8356589    0.0037429223
      5990.58       1.8155155    0.0037380851
      5996.57       1.7963178    0.0037328986
      6002.57       1.7785454    0.0037275220
      6008.57       1.7580324    0.0036925145
      6014.58       1.7454401    0.0036884641
      6020.60       1.7335336    0.0036846786
      6026.62       1.7198053    0.0036810298
      6032.65       1.7051413    0.0036776366
      6038.68       1.6902985    0.0036745052
      6044.72       1.6771229    0.0036714103
      6050.76       1.6640699    0.0036683222
      6056.81       1.6486857    0.0036653541
      6062.87       1.6348717    0.0036625207
      6068.93       1.6222523    0.0036597614
      6075.00       1.6132289    0.0036570787
      6081.08       1.6044801    0.0036544411
      6087.16       1.5950499    0.0036518991
      6093.25       1.5898589    0.0036494523
      6099.34       1.5902579    0.0036470409
      6105.44       1.5961909    0.0036141164
      6111.54       1.6020908    0.0036115945
      6117.66       1.6091047    0.0036091543
      6123.78       1.6156445    0.0036067542
      6129.90       1.6236602    0.0036044269
      6136.03       1.6271723    0.0036321553
      6142.17       1.6256488    0.0036299693
      6148.31       1.6227088    0.0036278389
      6154.46       1.6181551    0.0036258011
      6160.61       1.6073665    0.0036238169
      6166.77       1.5883273    0.0035931691
      6172.94       1.5646828    0.0035909769
      6179.11       1.5404471    0.0035888826
      6185.29       1.5166378    0.0035868515
      6191.48       1.4908540    0.0035850068
      6197.67       1.4666224    0.0035835979
      6203.87       1.4430858    0.0035832986
      6210.07       1.4251631    0.0035834413
      6216.28       1.4095740    0.0035541208
      6222.50       1.3981038    0.0035531312
      6228.72       1.3883862    0.0035542321
      6234.95       1.3838194    0.0035865850
      6241.19       1.3804133    0.0035913736
      6247.42       1.3764945    0.0035977055
      6253.67       1.3735387    0.0036048542
      6259.93       1.3755812    0.0035845124
      6266.19       1.3786786    0.0035903608
      6272.46       1.3796623    0.0035946471
      6278.73       1.3805116    0.0035967881
      6285.01       1.3829554    0.0035964416
      6291.29       1.3846544    0.0035631733
      6297.58       1.3877009    0.0035859052
      6303.88       1.3959952    0.0035785323
      6310.19       1.4054053    0.0035710274
      6316.50       1.4157023    0.0035647237
      6322.81       1.4265788    0.0035607002
      6329.14       1.4409888    0.0035288405
      6335.47       1.4548114    0.0035243844
      6341.80       1.4716069    0.0035482059
      6348.14       1.4910521    0.0035455314
      6354.49       1.5115451    0.0035432380
      6360.85       1.5321540    0.0035133802
      6367.21       1.5502757    0.0035112141
      6373.57       1.5704143    0.0035094996
      6379.95       1.5920607    0.0035082840
      6386.33       1.6134212    0.0035093435
      6392.72       1.6326853    0.0035083535
      6399.11       1.6524043    0.0035078915
      6405.51       1.6718443    0.0035078281
      6411.92       1.6847166    0.0034820130
      6418.32       1.6966035    0.0034827449
      6424.74       1.7055468    0.0035115671
      6431.17       1.7097240    0.0035132413
      6437.60       1.7086747    0.0034905140
      6444.04       1.7098000    0.0034942153
      6450.48       1.7111700    0.0034975446
      6456.94       1.7090707    0.0035281209
      6463.39       1.7071229    0.0035043658
      6469.85       1.7073851    0.0035067798
      6476.33       1.7078263    0.0035088887
      6482.80       1.7090145    0.0035104925
      6489.28       1.7112155    0.0035111036
      6495.77       1.7177500    0.0035108619
      6502.27       1.7265977    0.0035107501
      6508.77       1.7379957    0.0034839542
      6515.28       1.7505750    0.0035117069
      6521.80       1.7633318    0.0035125203
      6528.32       1.7738819    0.0035137621
      6534.85       1.7839824    0.0034877861
      6541.38       1.7916644    0.0034878028
      6547.92       1.7949829    0.0035154258
      6554.47       1.7987400    0.0034891516
      6561.03       1.8033624    0.0034891965
      6567.59       1.8055511    0.0034898309
      6574.16       1.7999463    0.0034918216
      6580.73       1.7932765    0.0034911695
      6587.31       1.7884129    0.0034914934
      6593.90       1.7822652    0.0034952596
      6600.50       1.7746034    0.0034960710
      6607.10       1.7652739    0.0034973654
      6613.70       1.7561180    0.0034741854
      6620.32       1.7465525    0.0035035244
      6626.94       1.7367851    0.0035051775
      6633.57       1.7260277    0.0034821547
      6640.20       1.7127658    0.0034847387
      6646.84       1.6999155    0.0035135870
      6653.49       1.6885527    0.0034909197
      6660.14       1.6787408    0.0034934651
      6666.80       1.6660046    0.0035230353
      6673.47       1.6547207    0.0035004667
      6680.14       1.6453149    0.0035035646
      6686.82       1.6367874    0.0035078851
      6693.51       1.6258856    0.0035106468
      6700.20       1.6142571    0.0035139909
      6706.90       1.6048292    0.0035185045
      6713.61       1.6003925    0.0035215315
      6720.32       1.5962914    0.0034995775
      6727.05       1.5889699    0.0035297266
      6733.77       1.5800995    0.0035331574
      6740.51       1.5732646    0.0035110554
      6747.25       1.5652424    0.0035416643
      6754.00       1.5513642    0.0035203315
      6760.75       1.5360965    0.0035232237
      6767.51       1.5191262    0.0035543486
      6774.28       1.5055500    0.0035328395
      6781.05       1.4917599    0.0035374247
      6787.84       1.4715257    0.0035538996
      6794.62       1.4557892    0.0035677360
      6801.42       1.4428821    0.0035491852
      6808.22       1.4282062    0.0035764887
      6815.03       1.4150178    0.0035893932
      6821.85       1.4029903    0.0036262227
      6828.67       1.3913162    0.0036627921
      6835.50       1.3817493    0.0036898352
      6842.33       1.3769813    0.0037816349
      6849.17       1.3703213    0.0038167256
      6856.02       1.3620251    0.0038702627
      6862.88       1.3541818    0.0039298006
      6869.74       1.3534974    0.0039602130
      6876.61       1.3511387    0.0039773812
      6883.49       1.3509586    0.0039714554
      6890.37       1.3568573    0.0039145496
      6897.27       1.3611127    0.0039096288
      6904.16       1.3653145    0.0038738131
      6911.07       1.3682425    0.0038299267
      6917.98       1.3699507    0.0038093327
      6924.89       1.3786071    0.0037941566
      6931.82       1.3840842    0.0037757534
      6938.75       1.3840526    0.0037284960
      6945.69       1.3856804    0.0037451518
      6952.64       1.3852180    0.0037128912
      6959.59       1.3829626    0.0037087466
      6966.55       1.3788771    0.0037056985
      6973.52       1.3740137    0.0037080288
      6980.49       1.3680560    0.0037100386
      6987.47       1.3592362    0.0037178916
      6994.46       1.3524954    0.0037224017
      7001.46       1.3506834    0.0037307017
      7008.46       1.3486162    0.0037337564
      7015.46       1.3459767    0.0037391926
      7022.48       1.3427272    0.0037400379
      7029.51       1.3389691    0.0037171697
      7036.53       1.3355520    0.0037466879
      7043.57       1.3322832    0.0037255163
      7050.62       1.3301690    0.0037307263
      7057.66       1.3284756    0.0037346448
      7064.72       1.3305904    0.0037405201
      7071.79       1.3291498    0.0037457810
      7078.86       1.3286127    0.0037535199
      7085.94       1.3253306    0.0037617724
      7093.03       1.3241377    0.0037744186
      7100.12       1.3255506    0.0037595061
      7107.22       1.3304027    0.0037995621
      7114.33       1.3372742    0.0038166833
      7121.44       1.3437566    0.0038330928
      7128.56       1.3530562    0.0038625671
      7135.69       1.3624146    0.0038734182
      7142.83       1.3693091    0.0039439434
      7149.97       1.3731257    0.0039715026
      7157.12       1.3792542    0.0040512563
      7164.28       1.3901763    0.0040679678
      7171.44       1.3999208    0.0041089853
      7178.62       1.4036532    0.0041304089
      7185.80       1.4089119    0.0041519062
      7192.98       1.4112051    0.0041648524
      7200.17       1.4141491    0.0041658317
      7207.38       1.4090825    0.0041667342
      7214.58       1.4064349    0.0041668529
      7221.80       1.4035873    0.0041752514
      7229.02       1.4051172    0.0041596147
      7236.25       1.4087558    0.0042043561
      7243.49       1.4109262    0.0042221029
      7250.73       1.4103529    0.0042017549
      7257.98       1.4089854    0.0042363833
      7265.24       1.4048662    0.0042049804
      7272.51       1.4035242    0.0041968463
      7279.78       1.4018298    0.0042191856
      7287.06       1.4016581    0.0041860619
      7294.35       1.3986407    0.0041789683
      7301.64       1.4017731    0.0041400478
      7308.94       1.4072820    0.0041575370
      7316.25       1.4113579    0.0041458976
      7323.57       1.4125756    0.0041101283
      7330.89       1.4137329    0.0041336055
      7338.22       1.4223116    0.0041302916
      7345.56       1.4305602    0.0041023715
      7352.91       1.4384565    0.0041332111
      7360.26       1.4439900    0.0041095143
      7367.62       1.4533678    0.0041163603
      7374.99       1.4635157    0.0041229781
      7382.37       1.4668556    0.0041257649
      7389.75       1.4648789    0.0041326438
      7397.14       1.4642110    0.0041412318
      7404.53       1.4632533    0.0041213941
      7411.94       1.4602124    0.0041575805
      7419.35       1.4467825    0.0041693731
      7426.77       1.4297233    0.0041517381
      7434.20       1.4118744    0.0041637398
      7441.63       1.3952343    0.0042026985
      7449.07       1.3742918    0.0041869496
      7456.52       1.3421275    0.0042005930
      7463.98       1.3044386    0.0042147962
      7471.45       1.2706897    0.0042556957
      7478.92       1.2311277    0.0042405676
      7486.40       1.1802122    0.0042555764
      7493.88       1.1309489    0.0042716889
      7501.38       1.0854414    0.0042646577
      7508.88       1.0434172    0.0043313822
      7516.39       1.0030197    0.0043995418
      7523.91      0.96716710    0.0044513067
      7531.43      0.93804042    0.0044106910
      7538.96      0.91629425    0.0044475135
      7546.50      0.90327650    0.0045616362
      7554.05      0.89326694    0.0047272584
      7561.60      0.88871984    0.0049187677
      7569.16      0.89572187    0.0052219444
      7576.73      0.91956320    0.0055806862
      7584.31      0.94318430    0.0059574741
      7591.89      0.97146517    0.0062673612
      7599.49       1.0055855    0.0066154468
      7607.09       1.0466305    0.0068445966
      7614.70       1.0920085    0.0068958428
      7622.31       1.1343888    0.0067251967
      7629.93       1.1742540    0.0064772670
      7637.56       1.2060257    0.0062220843
      7645.20       1.2239256    0.0058678901
      7652.85       1.2442829    0.0055562732
      7660.50       1.2684891    0.0053243539
      7668.16       1.2973792    0.0051364862
      7675.83       1.3081956    0.0049784432
      7683.50       1.3129313    0.0048765931
      7691.19       1.3166006    0.0048295176
      7698.88       1.3267689    0.0048028464
      7706.58       1.3391951    0.0047720986
      7714.29       1.3561253    0.0047515824
      7722.00       1.3717637    0.0047424487
      7729.73       1.3806843    0.0047430735
      7737.45       1.3890913    0.0047200860
      7745.19       1.3985916    0.0047316854
      7752.94       1.4156051    0.0047467785
      7760.69       1.4389528    0.0047637869
      7768.45       1.4615063    0.0047820939
      7776.22       1.4695311    0.0048017008
      7784.00       1.4715474    0.0048493280
      7791.78       1.4706560    0.0048347336
      7799.57       1.4816910    0.0048549218
      7807.37       1.4896458    0.0048755809
      7815.18       1.4862875    0.0048963782
      7822.99       1.4696193    0.0049176438
      7830.82       1.4597592    0.0049400568
      7838.65       1.4576788    0.0049636421
      7846.49       1.4655649    0.0049879334
      7854.34       1.4683366    0.0049776853
      7862.19       1.4672849    0.0050036457
      7870.05       1.4549176    0.0050300906
      7877.93       1.4400837    0.0050551675
      7885.80       1.4273326    0.0050783021
      7893.69       1.4193927    0.0051006635
      7901.58       1.4187402    0.0051226756
      7909.49       1.4131841    0.0051445194
      7917.40       1.4006841    0.0051662546
      7925.31       1.3824405    0.0051877332
      7933.24       1.3631833    0.0052095090
      7941.17       1.3426035    0.0051955774
      7949.11       1.3286766    0.0052190933
      7957.06       1.3096386    0.0052434138
      7965.02       1.2843984    0.0052675671
      7972.98       1.2623492    0.0052918955
      7980.96       1.2404307    0.0053161880
      7988.94       1.2167788    0.0053397757
      7996.93       1.1869642    0.0053621714
      8004.93       1.1483328    0.0053842784
      8012.93       1.1083098    0.0054071780
      8020.95       1.0630493    0.0054307266
      8028.97       1.0180007    0.0054534106
      8036.99      0.96982042    0.0054761297
      8045.03      0.92216651    0.0054728670
      8053.08      0.87724507    0.0055009752
      8061.13      0.82656837    0.0055329669
      8069.20      0.77573069    0.0055700602
      8077.26      0.72684345    0.0056112478
      8085.34      0.67338294    0.0056589427
      8093.43      0.62220507    0.0057166926
      8101.52      0.58004900    0.0057847276
      8109.62      0.53915692    0.0058602892
      8117.73      0.51059835    0.0059410663
      8125.85      0.48234206    0.0060288505
      8133.98      0.45258050    0.0061201955
      8142.11      0.43352719    0.0061631439
      8150.25      0.41498466    0.0062083963
      8158.41      0.39937326    0.0062443891
      8166.56      0.39015190    0.0062760853
      8174.73      0.38167973    0.0063010600
      8182.91      0.37100196    0.0063212865
      8191.09      0.36128106    0.0063362446
      8199.28      0.35299987    0.0063107966
      8207.48      0.34697682    0.0063191096
      8215.69      0.34076587    0.0063732640
      8223.91      0.33659748    0.0063911528
      8232.13      0.33084715    0.0064068227
      8240.36      0.32268301    0.0064179667
      8248.60      0.31964236    0.0064275522
      8256.85      0.32036869    0.0063985054
      8265.11      0.32194274    0.0064046629
      8273.37      0.33786012    0.0064124846
      8281.65      0.34927695    0.0064320364
      8289.93      0.36485699    0.0064617958
      8298.22      0.38169429    0.0064404018
      8306.52      0.39742496    0.0064731682
      8314.83      0.41808681    0.0064705146
      8323.14      0.43983874    0.0064723353
      8331.46      0.46074785    0.0064760180
      8339.80      0.48513905    0.0064468637
      8348.13      0.51148217    0.0064567439
      8356.48      0.53919107    0.0064650346
      8364.84      0.57081454    0.0064753103
      8373.21      0.60420795    0.0064958738
      8381.58      0.64215967    0.0065143062
      8389.96      0.68077801    0.0065341276
      8398.35      0.72287299    0.0065539341
      8406.75      0.77015258    0.0065755198
      8415.16      0.81863915    0.0065637563
      8423.57      0.86959505    0.0066317449
      8432.00      0.92567885    0.0066574543
      8440.43      0.98706986    0.0066844049
      8448.87       1.0457965    0.0066776084
      8457.32       1.1039253    0.0067064913
      8465.78       1.1631938    0.0067801429
      8474.25       1.2187984    0.0067752691
      8482.72       1.2707727    0.0068061592
      8491.20       1.3217489    0.0068373497
      8499.69       1.3735653    0.0068691450
      8508.19       1.4156348    0.0069076937
      8516.70       1.4571815    0.0069376377
      8525.22       1.4946530    0.0069676794
      8533.75       1.5261805    0.0069598382
      8542.28       1.5559517    0.0069887560
      8550.82       1.5821158    0.0070644426
      8559.37       1.6095796    0.0070577577
      8567.93       1.6326030    0.0070875580
      8576.50       1.6484968    0.0071174428
      8585.08       1.6612008    0.0071575931
      8593.66       1.6722907    0.0071880994
      8602.26       1.6823968    0.0072202709
      8610.86       1.6836699    0.0072168618
      8619.47       1.6860009    0.0072964534
      8628.09       1.6829371    0.0073293790
      8636.72       1.6738580    0.0073257753
      8645.36       1.6634199    0.0074067158
      8654.00       1.6470192    0.0074017817
      8662.66       1.6289804    0.0074349084
      8671.32       1.6012407    0.0074684694
      8679.99       1.5705829    0.0075097264
      8688.67       1.5345352    0.0075424274
      8697.36       1.4986151    0.0075759326
      8706.06       1.4642889    0.0076175503
      8714.76       1.4253657    0.0076514410
      8723.48       1.3853176    0.0076464333
      8732.21       1.3370017    0.0077303921
      8740.93       1.2860205    0.0077656123
      8749.68       1.2287019    0.0077607703
      8758.43       1.1756505    0.0078470673
      8767.19       1.1227833    0.0078434391
      8775.96       1.0766255    0.0078790199
      8784.73       1.0411080    0.0079269249
      8793.52       1.0082057    0.0079624401
      8802.31      0.97469611    0.0079596804
      8811.11      0.94777306    0.0080474039
      8819.92      0.93147360    0.0080846542
      8828.75      0.92992948    0.0080842435
      8837.57      0.93330378    0.0081736778
      8846.41      0.94077088    0.0081758152
      8855.26      0.94836744    0.0082717087
      8864.12      0.96200970    0.0082815263
      8872.98      0.98749523    0.0083312360
      8881.85       1.0105479    0.0084031421
      8890.73       1.0334396    0.0084735186
      8899.63       1.0508501    0.0085709010
      8908.52       1.0589783    0.0086647791
      8917.43       1.0601762    0.0087476278
      8926.35       1.0607210    0.0089423135
      8935.28       1.0631218    0.0090579399
      8944.22       1.0661777    0.0092802340
      8953.16       1.0630886    0.0094059855
      8962.11       1.0479392    0.0096220690
      8971.08       1.0271888    0.0096988655
      8980.05       1.0099432    0.0097780235
      8989.03      0.99521961    0.0098287413
      8998.02      0.98960375    0.0097882878
      9007.02      0.98131141    0.0098355308
      9016.02      0.96897633    0.0097840459
      9025.04      0.95591861    0.0098533332
      9034.07      0.95198542    0.0098422842
      9043.10      0.95544730    0.0099434095
      9052.14      0.95007818    0.0099700888
      9061.20      0.94767002     0.010130105
      9070.26      0.94342056     0.010172296
      9079.33      0.94015308     0.010283467
      9088.41      0.93727139     0.010360958
      9097.50      0.93465263     0.010437597
      9106.60      0.92871812     0.010485057
      9115.70      0.92043300     0.010538196
      9124.82      0.90964379     0.010517974
      9133.94      0.90413523     0.010615914
      9143.08      0.91092192     0.010575443
      9152.22      0.92026689     0.010570073
      9161.37      0.93209499     0.010545861
      9170.54      0.94456594     0.010521310
      9179.71      0.95353745     0.010504251
      9188.89      0.96991443     0.010493750
      9198.08      0.98759627     0.010517188
      9207.28       1.0080069     0.010556152
      9216.48       1.0247970     0.010636018
      9225.70       1.0360821     0.010706617
      9234.92       1.0469537     0.010916404
      9244.16       1.0518167     0.011086783
      9253.40       1.0503355     0.011425477
      9262.66       1.0403205     0.011904742
      9271.92       1.0243035     0.012366088
      9281.20       1.0076673     0.013086821
      9290.48      0.98991863     0.013752962
      9299.77      0.96225064     0.014652190
      9309.07      0.94714655     0.015565239
      9318.38      0.92667205     0.016190011
      9327.69      0.89975100     0.016869609
      9337.02      0.87507529     0.017053648
      9346.36      0.83304230     0.017114668
      9355.71      0.81585611     0.017108914
      9365.07      0.81395476     0.016697081
      9374.43      0.82018743     0.016378041
      9383.80      0.82996461     0.016148500
      9393.19      0.84080985     0.016063969
      9402.58      0.84316087     0.016060928
      9411.98      0.85644583     0.016220005
      9421.40      0.87327913     0.016288096
      9430.82      0.88368714     0.016534066
      9440.25      0.90005522     0.016715021
      9449.69      0.93108323     0.016708012
      9459.14      0.97327820     0.016654286
      9468.60      0.99740683     0.016521134
      9478.07       1.0143863     0.016465114
      9487.55       1.0436187     0.016412906
      9497.04       1.0610087     0.016337924
      9506.53       1.0735746     0.016200937
      9516.04       1.0873027     0.016151044
      9525.56       1.1008441     0.016160208
      9535.08       1.1099114     0.016081456
      9544.62       1.1138732     0.015899311
      9554.16       1.1092815     0.015784380
      9563.72       1.0980245     0.015650245
      9573.29       1.0840858     0.015597084
      9582.85       1.0629004     0.015354114
      9592.44       1.0403185     0.015199974
      9602.03       1.0295294     0.015037148
      9611.63       1.0208203     0.014832736
      9621.25       1.0134075     0.014583391
      9630.87       1.0057409     0.014385238
      9640.50      0.99303158     0.014251564
      9650.14      0.98256861     0.014030402
      9659.79      0.97563318     0.013804751
      9669.45      0.97143940     0.013675219
      9679.12      0.96916375     0.013580138
      9688.80      0.96650269     0.013537853
      9698.49      0.97098594     0.013544946
      9708.19      0.96558308     0.013518742
      9717.90      0.95721384     0.013591817
      9727.62      0.95018006     0.013667122
      9737.34      0.94291848     0.013792864
      9747.08      0.93382982     0.013824196
      9756.83      0.92341121     0.013824609
      9766.59      0.91399186     0.013741891
      9776.35      0.89442545     0.013721100
      9786.13      0.88008410     0.013692019
      9795.92      0.86969880     0.013664228
      9805.71      0.85132649     0.013645634
      9815.52      0.82259486     0.013635108
      9825.34      0.79300065     0.013626620
      9835.17      0.76385730     0.013553188
      9845.00      0.74648754     0.013550453
      9854.84      0.72519750     0.013562064
      9864.70      0.70745767     0.013593187
      9874.56      0.68124549     0.013628216
      9884.44      0.66461782     0.013662330
      9894.32      0.64841250     0.013705944
      9904.22      0.63965549     0.013760183
      9914.13      0.62848954     0.013816479
      9924.04      0.61844804     0.013798589
      9933.96      0.61351334     0.013857667
      9943.90      0.60779268     0.013919507
      9953.84      0.61136990     0.013985889
      9963.79      0.59693649     0.014053501
      9973.76      0.59184712     0.014124634
      9983.74      0.58668120     0.014198450
      9993.72      0.55980678     0.016819321
